{
  "openapi": "3.0.1",
  "info": {
    "title": "CDISC Library API",
    "description": "Public API for CDISC Library",
    "version": "1.0",
    "x-jentic-source-url": "https://api.swaggerhub.com/apis/achow_cdisc/cdisc-library-api/1.0"
  },
  "servers": [
    {
      "url": "https://api.library.cdisc.org/api"
    }
  ],
  "paths": {
    "/mdr/suggest": {
      "get": {
        "tags": [
          "Searches"
        ],
        "summary": "Get Search Query Suggestion Results Across CDISC Library",
        "description": "Get Search Query Suggestion Results Across CDISC Library",
        "operationId": "api-search-suggest",
        "parameters": [
          {
            "name": "q",
            "in": "query",
            "description": "Suggestion Query",
            "required": true,
            "schema": {
              "type": "string"
            }
          },
          {
            "name": "top",
            "in": "query",
            "description": "Suggestion term expression",
            "schema": {
              "type": "string"
            }
          },
          {
            "name": "select",
            "in": "query",
            "description": "Select fields to return with result",
            "schema": {
              "type": "string"
            }
          }
        ],
        "responses": {
          "200": {
            "description": "OK",
            "content": {
              "application/json": {
                "schema": {
                  "$ref": "#/components/schemas/suggestResult"
                },
                "example": {
                  "_links": {
                    "self": {
                      "href": "string",
                      "title": "string",
                      "type": "string"
                    },
                    "searchResults": [
                      {
                        "href": "string",
                        "title": "string",
                        "type": "string"
                      }
                    ]
                  }
                }
              },
              "application/xml": {
                "schema": {
                  "$ref": "#/components/schemas/suggestResult"
                },
                "example": "<suggestResult> <_links> <self> <href>string</href> <title>string</title> <type>string</type> </self> <searchResults> <href>string</href> <title>string</title> <type>string</type> </searchResults> </_links> </suggestResult>"
              },
              "text/csv": {
                "schema": {
                  "$ref": "#/components/schemas/suggestResult"
                },
                "examples": {
                  "default": {
                    "value": null
                  }
                }
              },
              "application/vnd.openxmlformats-officedocument.spreadsheetml.sheet": {
                "schema": {
                  "$ref": "#/components/schemas/suggestResult"
                },
                "example": "<suggestResult> <_links> <self> <href>string</href> <title>string</title> <type>string</type> </self> <searchResults> <href>string</href> <title>string</title> <type>string</type> </searchResults> </_links> </suggestResult>"
              },
              "application/vnd.ms-excel": {
                "schema": {
                  "$ref": "#/components/schemas/suggestResult"
                },
                "examples": {
                  "default": {
                    "value": null
                  }
                }
              },
              "application/odm+xml": {
                "schema": {
                  "$ref": "#/components/schemas/suggestResult"
                },
                "example": "<suggestResult> <_links> <self> <href>string</href> <title>string</title> <type>string</type> </self> <searchResults> <href>string</href> <title>string</title> <type>string</type> </searchResults> </_links> </suggestResult>"
              },
              "application/gzip": {
                "schema": {
                  "$ref": "#/components/schemas/suggestResult"
                },
                "examples": {
                  "default": {
                    "value": null
                  }
                }
              }
            }
          },
          "400": {
            "description": "Bad Request",
            "content": {
              "application/json": {
                "schema": {
                  "$ref": "#/components/schemas/error"
                },
                "example": {
                  "statusCode": "string",
                  "reasonPhrase": "string",
                  "userMessage": "string",
                  "adminMessage": "string"
                }
              },
              "application/xml": {
                "schema": {
                  "$ref": "#/components/schemas/error"
                },
                "example": "<error> <statusCode>string</statusCode> <reasonPhrase>string</reasonPhrase> <userMessage>string</userMessage> <adminMessage>string</adminMessage> </error>"
              },
              "text/csv": {
                "schema": {
                  "$ref": "#/components/schemas/error"
                },
                "examples": {
                  "default": {
                    "value": null
                  }
                }
              },
              "application/vnd.openxmlformats-officedocument.spreadsheetml.sheet": {
                "schema": {
                  "$ref": "#/components/schemas/error"
                },
                "example": "<error> <statusCode>string</statusCode> <reasonPhrase>string</reasonPhrase> <userMessage>string</userMessage> <adminMessage>string</adminMessage> </error>"
              },
              "application/vnd.ms-excel": {
                "schema": {
                  "$ref": "#/components/schemas/error"
                },
                "examples": {
                  "default": {
                    "value": null
                  }
                }
              },
              "application/odm+xml": {
                "schema": {
                  "$ref": "#/components/schemas/error"
                },
                "example": "<error> <statusCode>string</statusCode> <reasonPhrase>string</reasonPhrase> <userMessage>string</userMessage> <adminMessage>string</adminMessage> </error>"
              },
              "application/gzip": {
                "schema": {
                  "$ref": "#/components/schemas/error"
                },
                "examples": {
                  "default": {
                    "value": null
                  }
                }
              }
            }
          },
          "401": {
            "description": "Unauthorized",
            "headers": {
              "WWW_Authenticate": {
                "schema": {
                  "type": "string"
                }
              }
            },
            "content": {
              "application/json": {
                "schema": {
                  "$ref": "#/components/schemas/error"
                },
                "example": {
                  "statusCode": "string",
                  "reasonPhrase": "string",
                  "userMessage": "string",
                  "adminMessage": "string"
                }
              },
              "application/xml": {
                "schema": {
                  "$ref": "#/components/schemas/error"
                },
                "example": "<error> <statusCode>string</statusCode> <reasonPhrase>string</reasonPhrase> <userMessage>string</userMessage> <adminMessage>string</adminMessage> </error>"
              },
              "text/csv": {
                "schema": {
                  "$ref": "#/components/schemas/error"
                },
                "examples": {
                  "default": {
                    "value": null
                  }
                }
              },
              "application/vnd.openxmlformats-officedocument.spreadsheetml.sheet": {
                "schema": {
                  "$ref": "#/components/schemas/error"
                },
                "example": "<error> <statusCode>string</statusCode> <reasonPhrase>string</reasonPhrase> <userMessage>string</userMessage> <adminMessage>string</adminMessage> </error>"
              },
              "application/vnd.ms-excel": {
                "schema": {
                  "$ref": "#/components/schemas/error"
                },
                "examples": {
                  "default": {
                    "value": null
                  }
                }
              },
              "application/odm+xml": {
                "schema": {
                  "$ref": "#/components/schemas/error"
                },
                "example": "<error> <statusCode>string</statusCode> <reasonPhrase>string</reasonPhrase> <userMessage>string</userMessage> <adminMessage>string</adminMessage> </error>"
              },
              "application/gzip": {
                "schema": {
                  "$ref": "#/components/schemas/error"
                },
                "examples": {
                  "default": {
                    "value": null
                  }
                }
              }
            }
          },
          "403": {
            "description": "Forbidden",
            "content": {
              "application/json": {
                "schema": {
                  "$ref": "#/components/schemas/error"
                },
                "example": {
                  "statusCode": "string",
                  "reasonPhrase": "string",
                  "userMessage": "string",
                  "adminMessage": "string"
                }
              },
              "application/xml": {
                "schema": {
                  "$ref": "#/components/schemas/error"
                },
                "example": "<error> <statusCode>string</statusCode> <reasonPhrase>string</reasonPhrase> <userMessage>string</userMessage> <adminMessage>string</adminMessage> </error>"
              },
              "text/csv": {
                "schema": {
                  "$ref": "#/components/schemas/error"
                },
                "examples": {
                  "default": {
                    "value": null
                  }
                }
              },
              "application/vnd.openxmlformats-officedocument.spreadsheetml.sheet": {
                "schema": {
                  "$ref": "#/components/schemas/error"
                },
                "example": "<error> <statusCode>string</statusCode> <reasonPhrase>string</reasonPhrase> <userMessage>string</userMessage> <adminMessage>string</adminMessage> </error>"
              },
              "application/vnd.ms-excel": {
                "schema": {
                  "$ref": "#/components/schemas/error"
                },
                "examples": {
                  "default": {
                    "value": null
                  }
                }
              },
              "application/odm+xml": {
                "schema": {
                  "$ref": "#/components/schemas/error"
                },
                "example": "<error> <statusCode>string</statusCode> <reasonPhrase>string</reasonPhrase> <userMessage>string</userMessage> <adminMessage>string</adminMessage> </error>"
              },
              "application/gzip": {
                "schema": {
                  "$ref": "#/components/schemas/error"
                },
                "examples": {
                  "default": {
                    "value": null
                  }
                }
              }
            }
          },
          "404": {
            "description": "Not Found",
            "content": {
              "application/json": {
                "schema": {
                  "$ref": "#/components/schemas/error"
                },
                "example": {
                  "statusCode": "string",
                  "reasonPhrase": "string",
                  "userMessage": "string",
                  "adminMessage": "string"
                }
              },
              "application/xml": {
                "schema": {
                  "$ref": "#/components/schemas/error"
                },
                "example": "<error> <statusCode>string</statusCode> <reasonPhrase>string</reasonPhrase> <userMessage>string</userMessage> <adminMessage>string</adminMessage> </error>"
              },
              "text/csv": {
                "schema": {
                  "$ref": "#/components/schemas/error"
                },
                "examples": {
                  "default": {
                    "value": null
                  }
                }
              },
              "application/vnd.openxmlformats-officedocument.spreadsheetml.sheet": {
                "schema": {
                  "$ref": "#/components/schemas/error"
                },
                "example": "<error> <statusCode>string</statusCode> <reasonPhrase>string</reasonPhrase> <userMessage>string</userMessage> <adminMessage>string</adminMessage> </error>"
              },
              "application/vnd.ms-excel": {
                "schema": {
                  "$ref": "#/components/schemas/error"
                },
                "examples": {
                  "default": {
                    "value": null
                  }
                }
              },
              "application/odm+xml": {
                "schema": {
                  "$ref": "#/components/schemas/error"
                },
                "example": "<error> <statusCode>string</statusCode> <reasonPhrase>string</reasonPhrase> <userMessage>string</userMessage> <adminMessage>string</adminMessage> </error>"
              },
              "application/gzip": {
                "schema": {
                  "$ref": "#/components/schemas/error"
                },
                "examples": {
                  "default": {
                    "value": null
                  }
                }
              }
            }
          },
          "406": {
            "description": "Not Acceptable",
            "content": {
              "application/json": {
                "schema": {
                  "$ref": "#/components/schemas/error"
                },
                "example": {
                  "statusCode": "string",
                  "reasonPhrase": "string",
                  "userMessage": "string",
                  "adminMessage": "string"
                }
              },
              "application/xml": {
                "schema": {
                  "$ref": "#/components/schemas/error"
                },
                "example": "<error> <statusCode>string</statusCode> <reasonPhrase>string</reasonPhrase> <userMessage>string</userMessage> <adminMessage>string</adminMessage> </error>"
              },
              "text/csv": {
                "schema": {
                  "$ref": "#/components/schemas/error"
                },
                "examples": {
                  "default": {
                    "value": null
                  }
                }
              },
              "application/vnd.openxmlformats-officedocument.spreadsheetml.sheet": {
                "schema": {
                  "$ref": "#/components/schemas/error"
                },
                "example": "<error> <statusCode>string</statusCode> <reasonPhrase>string</reasonPhrase> <userMessage>string</userMessage> <adminMessage>string</adminMessage> </error>"
              },
              "application/vnd.ms-excel": {
                "schema": {
                  "$ref": "#/components/schemas/error"
                },
                "examples": {
                  "default": {
                    "value": null
                  }
                }
              },
              "application/odm+xml": {
                "schema": {
                  "$ref": "#/components/schemas/error"
                },
                "example": "<error> <statusCode>string</statusCode> <reasonPhrase>string</reasonPhrase> <userMessage>string</userMessage> <adminMessage>string</adminMessage> </error>"
              },
              "application/gzip": {
                "schema": {
                  "$ref": "#/components/schemas/error"
                },
                "examples": {
                  "default": {
                    "value": null
                  }
                }
              }
            }
          },
          "500": {
            "description": "Internal Server Error",
            "content": {
              "application/json": {
                "schema": {
                  "$ref": "#/components/schemas/error"
                },
                "example": {
                  "statusCode": "string",
                  "reasonPhrase": "string",
                  "userMessage": "string",
                  "adminMessage": "string"
                }
              },
              "application/xml": {
                "schema": {
                  "$ref": "#/components/schemas/error"
                },
                "example": "<error> <statusCode>string</statusCode> <reasonPhrase>string</reasonPhrase> <userMessage>string</userMessage> <adminMessage>string</adminMessage> </error>"
              },
              "text/csv": {
                "schema": {
                  "$ref": "#/components/schemas/error"
                },
                "examples": {
                  "default": {
                    "value": null
                  }
                }
              },
              "application/vnd.openxmlformats-officedocument.spreadsheetml.sheet": {
                "schema": {
                  "$ref": "#/components/schemas/error"
                },
                "example": "<error> <statusCode>string</statusCode> <reasonPhrase>string</reasonPhrase> <userMessage>string</userMessage> <adminMessage>string</adminMessage> </error>"
              },
              "application/vnd.ms-excel": {
                "schema": {
                  "$ref": "#/components/schemas/error"
                },
                "examples": {
                  "default": {
                    "value": null
                  }
                }
              },
              "application/odm+xml": {
                "schema": {
                  "$ref": "#/components/schemas/error"
                },
                "example": "<error> <statusCode>string</statusCode> <reasonPhrase>string</reasonPhrase> <userMessage>string</userMessage> <adminMessage>string</adminMessage> </error>"
              },
              "application/gzip": {
                "schema": {
                  "$ref": "#/components/schemas/error"
                },
                "examples": {
                  "default": {
                    "value": null
                  }
                }
              }
            }
          },
          "503": {
            "description": "Service Unavailable",
            "content": {
              "application/json": {
                "schema": {
                  "$ref": "#/components/schemas/error"
                },
                "example": {
                  "statusCode": "string",
                  "reasonPhrase": "string",
                  "userMessage": "string",
                  "adminMessage": "string"
                }
              },
              "application/xml": {
                "schema": {
                  "$ref": "#/components/schemas/error"
                },
                "example": "<error> <statusCode>string</statusCode> <reasonPhrase>string</reasonPhrase> <userMessage>string</userMessage> <adminMessage>string</adminMessage> </error>"
              },
              "text/csv": {
                "schema": {
                  "$ref": "#/components/schemas/error"
                },
                "examples": {
                  "default": {
                    "value": null
                  }
                }
              },
              "application/vnd.openxmlformats-officedocument.spreadsheetml.sheet": {
                "schema": {
                  "$ref": "#/components/schemas/error"
                },
                "example": "<error> <statusCode>string</statusCode> <reasonPhrase>string</reasonPhrase> <userMessage>string</userMessage> <adminMessage>string</adminMessage> </error>"
              },
              "application/vnd.ms-excel": {
                "schema": {
                  "$ref": "#/components/schemas/error"
                },
                "examples": {
                  "default": {
                    "value": null
                  }
                }
              },
              "application/odm+xml": {
                "schema": {
                  "$ref": "#/components/schemas/error"
                },
                "example": "<error> <statusCode>string</statusCode> <reasonPhrase>string</reasonPhrase> <userMessage>string</userMessage> <adminMessage>string</adminMessage> </error>"
              },
              "application/gzip": {
                "schema": {
                  "$ref": "#/components/schemas/error"
                },
                "examples": {
                  "default": {
                    "value": null
                  }
                }
              }
            }
          }
        }
      }
    },
    "/mdr/search": {
      "get": {
        "tags": [
          "Searches"
        ],
        "summary": "Get Search Results Across CDISC Library",
        "description": "Get Search Results Across CDISC Library",
        "operationId": "api-search-search",
        "parameters": [
          {
            "name": "q",
            "in": "query",
            "description": "Search Term Expression",
            "required": true,
            "schema": {
              "type": "string"
            }
          },
          {
            "name": "start",
            "in": "query",
            "description": "Initial Search Result Index",
            "schema": {
              "type": "integer"
            }
          },
          {
            "name": "pageSize",
            "in": "query",
            "description": "Number of Search Results to Return",
            "schema": {
              "type": "integer"
            }
          },
          {
            "name": "highlight",
            "in": "query",
            "description": "fields to highlight hits for query term",
            "schema": {
              "type": "string"
            }
          },
          {
            "name": "facets",
            "in": "query",
            "description": "return facets with search results",
            "schema": {
              "type": "boolean",
              "default": false
            }
          },
          {
            "name": "class",
            "in": "query",
            "description": "Limit Search by Setting Scope to Class",
            "schema": {
              "type": "string"
            }
          },
          {
            "name": "codelist",
            "in": "query",
            "description": "Limit Search by Setting Scope to Codelist",
            "schema": {
              "type": "string"
            }
          },
          {
            "name": "conceptId",
            "in": "query",
            "description": "Limit Search by Setting Scope to Concept ID",
            "schema": {
              "type": "string"
            }
          },
          {
            "name": "core",
            "in": "query",
            "description": "Limit Search by Setting Scope to Core",
            "schema": {
              "type": "string"
            }
          },
          {
            "name": "dataStructure",
            "in": "query",
            "description": "Limit Search by Setting Scope to Data Structure",
            "schema": {
              "type": "string"
            }
          },
          {
            "name": "datasetStructure",
            "in": "query",
            "description": "Limit Search by Setting Scope to Dataset Structure",
            "schema": {
              "type": "string"
            }
          },
          {
            "name": "definition",
            "in": "query",
            "description": "Limit Search by Setting Scope to Definition",
            "schema": {
              "type": "string"
            }
          },
          {
            "name": "description",
            "in": "query",
            "description": "Limit Search by Setting Scope to Description",
            "schema": {
              "type": "string"
            }
          },
          {
            "name": "domain",
            "in": "query",
            "description": "Limit Search by Setting Scope to Domain",
            "schema": {
              "type": "string"
            }
          },
          {
            "name": "effectiveDate",
            "in": "query",
            "description": "Limit Search by Setting Scope to Effective Date",
            "schema": {
              "type": "string"
            }
          },
          {
            "name": "extensible",
            "in": "query",
            "description": "Limit Search by Setting Scope to Extensible",
            "schema": {
              "type": "string"
            }
          },
          {
            "name": "href",
            "in": "query",
            "description": "Limit Search by Setting Scope to Href",
            "schema": {
              "type": "string"
            }
          },
          {
            "name": "label",
            "in": "query",
            "description": "Limit Search by Setting Scope to Label",
            "schema": {
              "type": "string"
            }
          },
          {
            "name": "measureType",
            "in": "query",
            "description": "SLimit Search by Setting Scope to Measure Type",
            "schema": {
              "type": "string"
            }
          },
          {
            "name": "name",
            "in": "query",
            "description": "Limit Search by Setting Scope to Name",
            "schema": {
              "type": "string"
            }
          },
          {
            "name": "preferredTerm",
            "in": "query",
            "description": "Limit Search by Setting Scope to Preferred Term",
            "schema": {
              "type": "string"
            }
          },
          {
            "name": "product",
            "in": "query",
            "description": "Limit Search by Setting Scope to Product",
            "schema": {
              "type": "string"
            }
          },
          {
            "name": "productGroup",
            "in": "query",
            "description": "Limit Search by Setting Scope to Product Group",
            "schema": {
              "type": "string"
            }
          },
          {
            "name": "registrationStatus",
            "in": "query",
            "description": "Limit Search by Setting Scope to Registration Status",
            "schema": {
              "type": "string"
            }
          },
          {
            "name": "roleDescription",
            "in": "query",
            "description": "Limit Search by Setting Scope to Role Description",
            "schema": {
              "type": "string"
            }
          },
          {
            "name": "sdtmTarget",
            "in": "query",
            "description": "Limit Search by Setting Scope to SDTM Target",
            "schema": {
              "type": "string"
            }
          },
          {
            "name": "simpleDatatype",
            "in": "query",
            "description": "Limit Search by Setting Scope to Simple Datatype",
            "schema": {
              "type": "string"
            }
          },
          {
            "name": "submissionValue",
            "in": "query",
            "description": "Limit Search by Setting Scope to Submission Value",
            "schema": {
              "type": "string"
            }
          },
          {
            "name": "synonyms",
            "in": "query",
            "description": "Limit Search by Setting Scope to Synonyms",
            "schema": {
              "type": "string"
            }
          },
          {
            "name": "type",
            "in": "query",
            "description": "Limit Search by Setting Scope to Type",
            "schema": {
              "type": "string"
            }
          },
          {
            "name": "uiHref",
            "in": "query",
            "description": "Limit Search by Setting Scope to UI Href",
            "schema": {
              "type": "string"
            }
          },
          {
            "name": "valueDomain",
            "in": "query",
            "description": "Limit Search by Setting Scope to Value Domain",
            "schema": {
              "type": "string"
            }
          },
          {
            "name": "variableSet",
            "in": "query",
            "description": "Limit Search by Setting Scope to Variable Set",
            "schema": {
              "type": "string"
            }
          },
          {
            "name": "version",
            "in": "query",
            "description": "Limit Search by Setting Scope to Version",
            "schema": {
              "type": "string"
            }
          }
        ],
        "responses": {
          "200": {
            "description": "OK",
            "content": {
              "application/json": {
                "schema": {
                  "$ref": "#/components/schemas/searchResult"
                },
                "example": {
                  "_links": {
                    "self": {
                      "href": "string",
                      "title": "string",
                      "type": "string"
                    },
                    "searchResults": [
                      {
                        "href": "string",
                        "title": "string",
                        "type": "string"
                      }
                    ]
                  }
                }
              },
              "application/xml": {
                "schema": {
                  "$ref": "#/components/schemas/searchResult"
                },
                "example": "<searchResult> <_links> <self> <href>string</href> <title>string</title> <type>string</type> </self> <searchResults> <href>string</href> <title>string</title> <type>string</type> </searchResults> </_links> </searchResult>"
              },
              "text/csv": {
                "schema": {
                  "$ref": "#/components/schemas/searchResult"
                },
                "examples": {
                  "default": {
                    "value": null
                  }
                }
              },
              "application/vnd.openxmlformats-officedocument.spreadsheetml.sheet": {
                "schema": {
                  "$ref": "#/components/schemas/searchResult"
                },
                "example": "<searchResult> <_links> <self> <href>string</href> <title>string</title> <type>string</type> </self> <searchResults> <href>string</href> <title>string</title> <type>string</type> </searchResults> </_links> </searchResult>"
              },
              "application/vnd.ms-excel": {
                "schema": {
                  "$ref": "#/components/schemas/searchResult"
                },
                "examples": {
                  "default": {
                    "value": null
                  }
                }
              },
              "application/odm+xml": {
                "schema": {
                  "$ref": "#/components/schemas/searchResult"
                },
                "example": "<searchResult> <_links> <self> <href>string</href> <title>string</title> <type>string</type> </self> <searchResults> <href>string</href> <title>string</title> <type>string</type> </searchResults> </_links> </searchResult>"
              },
              "application/gzip": {
                "schema": {
                  "$ref": "#/components/schemas/searchResult"
                },
                "examples": {
                  "default": {
                    "value": null
                  }
                }
              }
            }
          },
          "400": {
            "description": "Bad Request",
            "content": {
              "application/json": {
                "schema": {
                  "$ref": "#/components/schemas/error"
                },
                "example": {
                  "statusCode": "string",
                  "reasonPhrase": "string",
                  "userMessage": "string",
                  "adminMessage": "string"
                }
              },
              "application/xml": {
                "schema": {
                  "$ref": "#/components/schemas/error"
                },
                "example": "<error> <statusCode>string</statusCode> <reasonPhrase>string</reasonPhrase> <userMessage>string</userMessage> <adminMessage>string</adminMessage> </error>"
              },
              "text/csv": {
                "schema": {
                  "$ref": "#/components/schemas/error"
                },
                "examples": {
                  "default": {
                    "value": null
                  }
                }
              },
              "application/vnd.openxmlformats-officedocument.spreadsheetml.sheet": {
                "schema": {
                  "$ref": "#/components/schemas/error"
                },
                "example": "<error> <statusCode>string</statusCode> <reasonPhrase>string</reasonPhrase> <userMessage>string</userMessage> <adminMessage>string</adminMessage> </error>"
              },
              "application/vnd.ms-excel": {
                "schema": {
                  "$ref": "#/components/schemas/error"
                },
                "examples": {
                  "default": {
                    "value": null
                  }
                }
              },
              "application/odm+xml": {
                "schema": {
                  "$ref": "#/components/schemas/error"
                },
                "example": "<error> <statusCode>string</statusCode> <reasonPhrase>string</reasonPhrase> <userMessage>string</userMessage> <adminMessage>string</adminMessage> </error>"
              },
              "application/gzip": {
                "schema": {
                  "$ref": "#/components/schemas/error"
                },
                "examples": {
                  "default": {
                    "value": null
                  }
                }
              }
            }
          },
          "401": {
            "description": "Unauthorized",
            "headers": {
              "WWW_Authenticate": {
                "schema": {
                  "type": "string"
                }
              }
            },
            "content": {
              "application/json": {
                "schema": {
                  "$ref": "#/components/schemas/error"
                },
                "example": {
                  "statusCode": "string",
                  "reasonPhrase": "string",
                  "userMessage": "string",
                  "adminMessage": "string"
                }
              },
              "application/xml": {
                "schema": {
                  "$ref": "#/components/schemas/error"
                },
                "example": "<error> <statusCode>string</statusCode> <reasonPhrase>string</reasonPhrase> <userMessage>string</userMessage> <adminMessage>string</adminMessage> </error>"
              },
              "text/csv": {
                "schema": {
                  "$ref": "#/components/schemas/error"
                },
                "examples": {
                  "default": {
                    "value": null
                  }
                }
              },
              "application/vnd.openxmlformats-officedocument.spreadsheetml.sheet": {
                "schema": {
                  "$ref": "#/components/schemas/error"
                },
                "example": "<error> <statusCode>string</statusCode> <reasonPhrase>string</reasonPhrase> <userMessage>string</userMessage> <adminMessage>string</adminMessage> </error>"
              },
              "application/vnd.ms-excel": {
                "schema": {
                  "$ref": "#/components/schemas/error"
                },
                "examples": {
                  "default": {
                    "value": null
                  }
                }
              },
              "application/odm+xml": {
                "schema": {
                  "$ref": "#/components/schemas/error"
                },
                "example": "<error> <statusCode>string</statusCode> <reasonPhrase>string</reasonPhrase> <userMessage>string</userMessage> <adminMessage>string</adminMessage> </error>"
              },
              "application/gzip": {
                "schema": {
                  "$ref": "#/components/schemas/error"
                },
                "examples": {
                  "default": {
                    "value": null
                  }
                }
              }
            }
          },
          "403": {
            "description": "Forbidden",
            "content": {
              "application/json": {
                "schema": {
                  "$ref": "#/components/schemas/error"
                },
                "example": {
                  "statusCode": "string",
                  "reasonPhrase": "string",
                  "userMessage": "string",
                  "adminMessage": "string"
                }
              },
              "application/xml": {
                "schema": {
                  "$ref": "#/components/schemas/error"
                },
                "example": "<error> <statusCode>string</statusCode> <reasonPhrase>string</reasonPhrase> <userMessage>string</userMessage> <adminMessage>string</adminMessage> </error>"
              },
              "text/csv": {
                "schema": {
                  "$ref": "#/components/schemas/error"
                },
                "examples": {
                  "default": {
                    "value": null
                  }
                }
              },
              "application/vnd.openxmlformats-officedocument.spreadsheetml.sheet": {
                "schema": {
                  "$ref": "#/components/schemas/error"
                },
                "example": "<error> <statusCode>string</statusCode> <reasonPhrase>string</reasonPhrase> <userMessage>string</userMessage> <adminMessage>string</adminMessage> </error>"
              },
              "application/vnd.ms-excel": {
                "schema": {
                  "$ref": "#/components/schemas/error"
                },
                "examples": {
                  "default": {
                    "value": null
                  }
                }
              },
              "application/odm+xml": {
                "schema": {
                  "$ref": "#/components/schemas/error"
                },
                "example": "<error> <statusCode>string</statusCode> <reasonPhrase>string</reasonPhrase> <userMessage>string</userMessage> <adminMessage>string</adminMessage> </error>"
              },
              "application/gzip": {
                "schema": {
                  "$ref": "#/components/schemas/error"
                },
                "examples": {
                  "default": {
                    "value": null
                  }
                }
              }
            }
          },
          "404": {
            "description": "Not Found",
            "content": {
              "application/json": {
                "schema": {
                  "$ref": "#/components/schemas/error"
                },
                "example": {
                  "statusCode": "string",
                  "reasonPhrase": "string",
                  "userMessage": "string",
                  "adminMessage": "string"
                }
              },
              "application/xml": {
                "schema": {
                  "$ref": "#/components/schemas/error"
                },
                "example": "<error> <statusCode>string</statusCode> <reasonPhrase>string</reasonPhrase> <userMessage>string</userMessage> <adminMessage>string</adminMessage> </error>"
              },
              "text/csv": {
                "schema": {
                  "$ref": "#/components/schemas/error"
                },
                "examples": {
                  "default": {
                    "value": null
                  }
                }
              },
              "application/vnd.openxmlformats-officedocument.spreadsheetml.sheet": {
                "schema": {
                  "$ref": "#/components/schemas/error"
                },
                "example": "<error> <statusCode>string</statusCode> <reasonPhrase>string</reasonPhrase> <userMessage>string</userMessage> <adminMessage>string</adminMessage> </error>"
              },
              "application/vnd.ms-excel": {
                "schema": {
                  "$ref": "#/components/schemas/error"
                },
                "examples": {
                  "default": {
                    "value": null
                  }
                }
              },
              "application/odm+xml": {
                "schema": {
                  "$ref": "#/components/schemas/error"
                },
                "example": "<error> <statusCode>string</statusCode> <reasonPhrase>string</reasonPhrase> <userMessage>string</userMessage> <adminMessage>string</adminMessage> </error>"
              },
              "application/gzip": {
                "schema": {
                  "$ref": "#/components/schemas/error"
                },
                "examples": {
                  "default": {
                    "value": null
                  }
                }
              }
            }
          },
          "406": {
            "description": "Not Acceptable",
            "content": {
              "application/json": {
                "schema": {
                  "$ref": "#/components/schemas/error"
                },
                "example": {
                  "statusCode": "string",
                  "reasonPhrase": "string",
                  "userMessage": "string",
                  "adminMessage": "string"
                }
              },
              "application/xml": {
                "schema": {
                  "$ref": "#/components/schemas/error"
                },
                "example": "<error> <statusCode>string</statusCode> <reasonPhrase>string</reasonPhrase> <userMessage>string</userMessage> <adminMessage>string</adminMessage> </error>"
              },
              "text/csv": {
                "schema": {
                  "$ref": "#/components/schemas/error"
                },
                "examples": {
                  "default": {
                    "value": null
                  }
                }
              },
              "application/vnd.openxmlformats-officedocument.spreadsheetml.sheet": {
                "schema": {
                  "$ref": "#/components/schemas/error"
                },
                "example": "<error> <statusCode>string</statusCode> <reasonPhrase>string</reasonPhrase> <userMessage>string</userMessage> <adminMessage>string</adminMessage> </error>"
              },
              "application/vnd.ms-excel": {
                "schema": {
                  "$ref": "#/components/schemas/error"
                },
                "examples": {
                  "default": {
                    "value": null
                  }
                }
              },
              "application/odm+xml": {
                "schema": {
                  "$ref": "#/components/schemas/error"
                },
                "example": "<error> <statusCode>string</statusCode> <reasonPhrase>string</reasonPhrase> <userMessage>string</userMessage> <adminMessage>string</adminMessage> </error>"
              },
              "application/gzip": {
                "schema": {
                  "$ref": "#/components/schemas/error"
                },
                "examples": {
                  "default": {
                    "value": null
                  }
                }
              }
            }
          },
          "500": {
            "description": "Internal Server Error",
            "content": {
              "application/json": {
                "schema": {
                  "$ref": "#/components/schemas/error"
                },
                "example": {
                  "statusCode": "string",
                  "reasonPhrase": "string",
                  "userMessage": "string",
                  "adminMessage": "string"
                }
              },
              "application/xml": {
                "schema": {
                  "$ref": "#/components/schemas/error"
                },
                "example": "<error> <statusCode>string</statusCode> <reasonPhrase>string</reasonPhrase> <userMessage>string</userMessage> <adminMessage>string</adminMessage> </error>"
              },
              "text/csv": {
                "schema": {
                  "$ref": "#/components/schemas/error"
                },
                "examples": {
                  "default": {
                    "value": null
                  }
                }
              },
              "application/vnd.openxmlformats-officedocument.spreadsheetml.sheet": {
                "schema": {
                  "$ref": "#/components/schemas/error"
                },
                "example": "<error> <statusCode>string</statusCode> <reasonPhrase>string</reasonPhrase> <userMessage>string</userMessage> <adminMessage>string</adminMessage> </error>"
              },
              "application/vnd.ms-excel": {
                "schema": {
                  "$ref": "#/components/schemas/error"
                },
                "examples": {
                  "default": {
                    "value": null
                  }
                }
              },
              "application/odm+xml": {
                "schema": {
                  "$ref": "#/components/schemas/error"
                },
                "example": "<error> <statusCode>string</statusCode> <reasonPhrase>string</reasonPhrase> <userMessage>string</userMessage> <adminMessage>string</adminMessage> </error>"
              },
              "application/gzip": {
                "schema": {
                  "$ref": "#/components/schemas/error"
                },
                "examples": {
                  "default": {
                    "value": null
                  }
                }
              }
            }
          },
          "503": {
            "description": "Service Unavailable",
            "content": {
              "application/json": {
                "schema": {
                  "$ref": "#/components/schemas/error"
                },
                "example": {
                  "statusCode": "string",
                  "reasonPhrase": "string",
                  "userMessage": "string",
                  "adminMessage": "string"
                }
              },
              "application/xml": {
                "schema": {
                  "$ref": "#/components/schemas/error"
                },
                "example": "<error> <statusCode>string</statusCode> <reasonPhrase>string</reasonPhrase> <userMessage>string</userMessage> <adminMessage>string</adminMessage> </error>"
              },
              "text/csv": {
                "schema": {
                  "$ref": "#/components/schemas/error"
                },
                "examples": {
                  "default": {
                    "value": null
                  }
                }
              },
              "application/vnd.openxmlformats-officedocument.spreadsheetml.sheet": {
                "schema": {
                  "$ref": "#/components/schemas/error"
                },
                "example": "<error> <statusCode>string</statusCode> <reasonPhrase>string</reasonPhrase> <userMessage>string</userMessage> <adminMessage>string</adminMessage> </error>"
              },
              "application/vnd.ms-excel": {
                "schema": {
                  "$ref": "#/components/schemas/error"
                },
                "examples": {
                  "default": {
                    "value": null
                  }
                }
              },
              "application/odm+xml": {
                "schema": {
                  "$ref": "#/components/schemas/error"
                },
                "example": "<error> <statusCode>string</statusCode> <reasonPhrase>string</reasonPhrase> <userMessage>string</userMessage> <adminMessage>string</adminMessage> </error>"
              },
              "application/gzip": {
                "schema": {
                  "$ref": "#/components/schemas/error"
                },
                "examples": {
                  "default": {
                    "value": null
                  }
                }
              }
            }
          }
        }
      }
    },
    "/mdr/search/scopes": {
      "get": {
        "tags": [
          "Searches"
        ],
        "summary": "Get a list of Search Scopes",
        "description": "Get a list of Search Scopes",
        "operationId": "api-search-search_scopes",
        "responses": {
          "200": {
            "description": "OK",
            "content": {
              "application/json": {
                "schema": {
                  "$ref": "#/components/schemas/searchScopeList"
                },
                "example": {
                  "scopes": [
                    "string"
                  ]
                }
              },
              "application/xml": {
                "schema": {
                  "$ref": "#/components/schemas/searchScopeList"
                },
                "example": "<searchScopeList> <scopes>string</scopes> </searchScopeList>"
              },
              "text/csv": {
                "schema": {
                  "$ref": "#/components/schemas/searchScopeList"
                },
                "examples": {
                  "default": {
                    "value": null
                  }
                }
              },
              "application/vnd.openxmlformats-officedocument.spreadsheetml.sheet": {
                "schema": {
                  "$ref": "#/components/schemas/searchScopeList"
                },
                "example": "<searchScopeList> <scopes>string</scopes> </searchScopeList>"
              },
              "application/vnd.ms-excel": {
                "schema": {
                  "$ref": "#/components/schemas/searchScopeList"
                },
                "examples": {
                  "default": {
                    "value": null
                  }
                }
              },
              "application/odm+xml": {
                "schema": {
                  "$ref": "#/components/schemas/searchScopeList"
                },
                "example": "<searchScopeList> <scopes>string</scopes> </searchScopeList>"
              },
              "application/gzip": {
                "schema": {
                  "$ref": "#/components/schemas/searchScopeList"
                },
                "examples": {
                  "default": {
                    "value": null
                  }
                }
              }
            }
          },
          "400": {
            "description": "Bad Request",
            "content": {
              "application/json": {
                "schema": {
                  "$ref": "#/components/schemas/error"
                },
                "example": {
                  "statusCode": "string",
                  "reasonPhrase": "string",
                  "userMessage": "string",
                  "adminMessage": "string"
                }
              },
              "application/xml": {
                "schema": {
                  "$ref": "#/components/schemas/error"
                },
                "example": "<error> <statusCode>string</statusCode> <reasonPhrase>string</reasonPhrase> <userMessage>string</userMessage> <adminMessage>string</adminMessage> </error>"
              },
              "text/csv": {
                "schema": {
                  "$ref": "#/components/schemas/error"
                },
                "examples": {
                  "default": {
                    "value": null
                  }
                }
              },
              "application/vnd.openxmlformats-officedocument.spreadsheetml.sheet": {
                "schema": {
                  "$ref": "#/components/schemas/error"
                },
                "example": "<error> <statusCode>string</statusCode> <reasonPhrase>string</reasonPhrase> <userMessage>string</userMessage> <adminMessage>string</adminMessage> </error>"
              },
              "application/vnd.ms-excel": {
                "schema": {
                  "$ref": "#/components/schemas/error"
                },
                "examples": {
                  "default": {
                    "value": null
                  }
                }
              },
              "application/odm+xml": {
                "schema": {
                  "$ref": "#/components/schemas/error"
                },
                "example": "<error> <statusCode>string</statusCode> <reasonPhrase>string</reasonPhrase> <userMessage>string</userMessage> <adminMessage>string</adminMessage> </error>"
              },
              "application/gzip": {
                "schema": {
                  "$ref": "#/components/schemas/error"
                },
                "examples": {
                  "default": {
                    "value": null
                  }
                }
              }
            }
          },
          "401": {
            "description": "Unauthorized",
            "headers": {
              "WWW_Authenticate": {
                "schema": {
                  "type": "string"
                }
              }
            },
            "content": {
              "application/json": {
                "schema": {
                  "$ref": "#/components/schemas/error"
                },
                "example": {
                  "statusCode": "string",
                  "reasonPhrase": "string",
                  "userMessage": "string",
                  "adminMessage": "string"
                }
              },
              "application/xml": {
                "schema": {
                  "$ref": "#/components/schemas/error"
                },
                "example": "<error> <statusCode>string</statusCode> <reasonPhrase>string</reasonPhrase> <userMessage>string</userMessage> <adminMessage>string</adminMessage> </error>"
              },
              "text/csv": {
                "schema": {
                  "$ref": "#/components/schemas/error"
                },
                "examples": {
                  "default": {
                    "value": null
                  }
                }
              },
              "application/vnd.openxmlformats-officedocument.spreadsheetml.sheet": {
                "schema": {
                  "$ref": "#/components/schemas/error"
                },
                "example": "<error> <statusCode>string</statusCode> <reasonPhrase>string</reasonPhrase> <userMessage>string</userMessage> <adminMessage>string</adminMessage> </error>"
              },
              "application/vnd.ms-excel": {
                "schema": {
                  "$ref": "#/components/schemas/error"
                },
                "examples": {
                  "default": {
                    "value": null
                  }
                }
              },
              "application/odm+xml": {
                "schema": {
                  "$ref": "#/components/schemas/error"
                },
                "example": "<error> <statusCode>string</statusCode> <reasonPhrase>string</reasonPhrase> <userMessage>string</userMessage> <adminMessage>string</adminMessage> </error>"
              },
              "application/gzip": {
                "schema": {
                  "$ref": "#/components/schemas/error"
                },
                "examples": {
                  "default": {
                    "value": null
                  }
                }
              }
            }
          },
          "403": {
            "description": "Forbidden",
            "content": {
              "application/json": {
                "schema": {
                  "$ref": "#/components/schemas/error"
                },
                "example": {
                  "statusCode": "string",
                  "reasonPhrase": "string",
                  "userMessage": "string",
                  "adminMessage": "string"
                }
              },
              "application/xml": {
                "schema": {
                  "$ref": "#/components/schemas/error"
                },
                "example": "<error> <statusCode>string</statusCode> <reasonPhrase>string</reasonPhrase> <userMessage>string</userMessage> <adminMessage>string</adminMessage> </error>"
              },
              "text/csv": {
                "schema": {
                  "$ref": "#/components/schemas/error"
                },
                "examples": {
                  "default": {
                    "value": null
                  }
                }
              },
              "application/vnd.openxmlformats-officedocument.spreadsheetml.sheet": {
                "schema": {
                  "$ref": "#/components/schemas/error"
                },
                "example": "<error> <statusCode>string</statusCode> <reasonPhrase>string</reasonPhrase> <userMessage>string</userMessage> <adminMessage>string</adminMessage> </error>"
              },
              "application/vnd.ms-excel": {
                "schema": {
                  "$ref": "#/components/schemas/error"
                },
                "examples": {
                  "default": {
                    "value": null
                  }
                }
              },
              "application/odm+xml": {
                "schema": {
                  "$ref": "#/components/schemas/error"
                },
                "example": "<error> <statusCode>string</statusCode> <reasonPhrase>string</reasonPhrase> <userMessage>string</userMessage> <adminMessage>string</adminMessage> </error>"
              },
              "application/gzip": {
                "schema": {
                  "$ref": "#/components/schemas/error"
                },
                "examples": {
                  "default": {
                    "value": null
                  }
                }
              }
            }
          },
          "404": {
            "description": "Not Found",
            "content": {
              "application/json": {
                "schema": {
                  "$ref": "#/components/schemas/error"
                },
                "example": {
                  "statusCode": "string",
                  "reasonPhrase": "string",
                  "userMessage": "string",
                  "adminMessage": "string"
                }
              },
              "application/xml": {
                "schema": {
                  "$ref": "#/components/schemas/error"
                },
                "example": "<error> <statusCode>string</statusCode> <reasonPhrase>string</reasonPhrase> <userMessage>string</userMessage> <adminMessage>string</adminMessage> </error>"
              },
              "text/csv": {
                "schema": {
                  "$ref": "#/components/schemas/error"
                },
                "examples": {
                  "default": {
                    "value": null
                  }
                }
              },
              "application/vnd.openxmlformats-officedocument.spreadsheetml.sheet": {
                "schema": {
                  "$ref": "#/components/schemas/error"
                },
                "example": "<error> <statusCode>string</statusCode> <reasonPhrase>string</reasonPhrase> <userMessage>string</userMessage> <adminMessage>string</adminMessage> </error>"
              },
              "application/vnd.ms-excel": {
                "schema": {
                  "$ref": "#/components/schemas/error"
                },
                "examples": {
                  "default": {
                    "value": null
                  }
                }
              },
              "application/odm+xml": {
                "schema": {
                  "$ref": "#/components/schemas/error"
                },
                "example": "<error> <statusCode>string</statusCode> <reasonPhrase>string</reasonPhrase> <userMessage>string</userMessage> <adminMessage>string</adminMessage> </error>"
              },
              "application/gzip": {
                "schema": {
                  "$ref": "#/components/schemas/error"
                },
                "examples": {
                  "default": {
                    "value": null
                  }
                }
              }
            }
          },
          "406": {
            "description": "Not Acceptable",
            "content": {
              "application/json": {
                "schema": {
                  "$ref": "#/components/schemas/error"
                },
                "example": {
                  "statusCode": "string",
                  "reasonPhrase": "string",
                  "userMessage": "string",
                  "adminMessage": "string"
                }
              },
              "application/xml": {
                "schema": {
                  "$ref": "#/components/schemas/error"
                },
                "example": "<error> <statusCode>string</statusCode> <reasonPhrase>string</reasonPhrase> <userMessage>string</userMessage> <adminMessage>string</adminMessage> </error>"
              },
              "text/csv": {
                "schema": {
                  "$ref": "#/components/schemas/error"
                },
                "examples": {
                  "default": {
                    "value": null
                  }
                }
              },
              "application/vnd.openxmlformats-officedocument.spreadsheetml.sheet": {
                "schema": {
                  "$ref": "#/components/schemas/error"
                },
                "example": "<error> <statusCode>string</statusCode> <reasonPhrase>string</reasonPhrase> <userMessage>string</userMessage> <adminMessage>string</adminMessage> </error>"
              },
              "application/vnd.ms-excel": {
                "schema": {
                  "$ref": "#/components/schemas/error"
                },
                "examples": {
                  "default": {
                    "value": null
                  }
                }
              },
              "application/odm+xml": {
                "schema": {
                  "$ref": "#/components/schemas/error"
                },
                "example": "<error> <statusCode>string</statusCode> <reasonPhrase>string</reasonPhrase> <userMessage>string</userMessage> <adminMessage>string</adminMessage> </error>"
              },
              "application/gzip": {
                "schema": {
                  "$ref": "#/components/schemas/error"
                },
                "examples": {
                  "default": {
                    "value": null
                  }
                }
              }
            }
          },
          "500": {
            "description": "Internal Server Error",
            "content": {
              "application/json": {
                "schema": {
                  "$ref": "#/components/schemas/error"
                },
                "example": {
                  "statusCode": "string",
                  "reasonPhrase": "string",
                  "userMessage": "string",
                  "adminMessage": "string"
                }
              },
              "application/xml": {
                "schema": {
                  "$ref": "#/components/schemas/error"
                },
                "example": "<error> <statusCode>string</statusCode> <reasonPhrase>string</reasonPhrase> <userMessage>string</userMessage> <adminMessage>string</adminMessage> </error>"
              },
              "text/csv": {
                "schema": {
                  "$ref": "#/components/schemas/error"
                },
                "examples": {
                  "default": {
                    "value": null
                  }
                }
              },
              "application/vnd.openxmlformats-officedocument.spreadsheetml.sheet": {
                "schema": {
                  "$ref": "#/components/schemas/error"
                },
                "example": "<error> <statusCode>string</statusCode> <reasonPhrase>string</reasonPhrase> <userMessage>string</userMessage> <adminMessage>string</adminMessage> </error>"
              },
              "application/vnd.ms-excel": {
                "schema": {
                  "$ref": "#/components/schemas/error"
                },
                "examples": {
                  "default": {
                    "value": null
                  }
                }
              },
              "application/odm+xml": {
                "schema": {
                  "$ref": "#/components/schemas/error"
                },
                "example": "<error> <statusCode>string</statusCode> <reasonPhrase>string</reasonPhrase> <userMessage>string</userMessage> <adminMessage>string</adminMessage> </error>"
              },
              "application/gzip": {
                "schema": {
                  "$ref": "#/components/schemas/error"
                },
                "examples": {
                  "default": {
                    "value": null
                  }
                }
              }
            }
          },
          "503": {
            "description": "Service Unavailable",
            "content": {
              "application/json": {
                "schema": {
                  "$ref": "#/components/schemas/error"
                },
                "example": {
                  "statusCode": "string",
                  "reasonPhrase": "string",
                  "userMessage": "string",
                  "adminMessage": "string"
                }
              },
              "application/xml": {
                "schema": {
                  "$ref": "#/components/schemas/error"
                },
                "example": "<error> <statusCode>string</statusCode> <reasonPhrase>string</reasonPhrase> <userMessage>string</userMessage> <adminMessage>string</adminMessage> </error>"
              },
              "text/csv": {
                "schema": {
                  "$ref": "#/components/schemas/error"
                },
                "examples": {
                  "default": {
                    "value": null
                  }
                }
              },
              "application/vnd.openxmlformats-officedocument.spreadsheetml.sheet": {
                "schema": {
                  "$ref": "#/components/schemas/error"
                },
                "example": "<error> <statusCode>string</statusCode> <reasonPhrase>string</reasonPhrase> <userMessage>string</userMessage> <adminMessage>string</adminMessage> </error>"
              },
              "application/vnd.ms-excel": {
                "schema": {
                  "$ref": "#/components/schemas/error"
                },
                "examples": {
                  "default": {
                    "value": null
                  }
                }
              },
              "application/odm+xml": {
                "schema": {
                  "$ref": "#/components/schemas/error"
                },
                "example": "<error> <statusCode>string</statusCode> <reasonPhrase>string</reasonPhrase> <userMessage>string</userMessage> <adminMessage>string</adminMessage> </error>"
              },
              "application/gzip": {
                "schema": {
                  "$ref": "#/components/schemas/error"
                },
                "examples": {
                  "default": {
                    "value": null
                  }
                }
              }
            }
          }
        }
      }
    },
    "/mdr/search/implementedBy": {
      "get": {
        "tags": [
          "Searches"
        ],
        "summary": "Get products that implment href",
        "description": "Get products that implment href",
        "operationId": "api-search-implemented_by",
        "parameters": [
          {
            "name": "href",
            "in": "query",
            "description": "Identify products who implment targetHref",
            "required": true,
            "schema": {
              "type": "string"
            }
          },
          {
            "name": "start",
            "in": "query",
            "description": "Initial Search Result Index",
            "schema": {
              "type": "integer"
            }
          },
          {
            "name": "pageSize",
            "in": "query",
            "description": "Number of Search Results to Return",
            "schema": {
              "type": "integer"
            }
          }
        ],
        "responses": {
          "200": {
            "description": "OK",
            "content": {
              "application/json": {
                "schema": {
                  "$ref": "#/components/schemas/searchResult"
                },
                "example": {
                  "_links": {
                    "self": {
                      "href": "string",
                      "title": "string",
                      "type": "string"
                    },
                    "searchResults": [
                      {
                        "href": "string",
                        "title": "string",
                        "type": "string"
                      }
                    ]
                  }
                }
              },
              "application/xml": {
                "schema": {
                  "$ref": "#/components/schemas/searchResult"
                },
                "example": "<searchResult> <_links> <self> <href>string</href> <title>string</title> <type>string</type> </self> <searchResults> <href>string</href> <title>string</title> <type>string</type> </searchResults> </_links> </searchResult>"
              },
              "text/csv": {
                "schema": {
                  "$ref": "#/components/schemas/searchResult"
                },
                "examples": {
                  "default": {
                    "value": null
                  }
                }
              },
              "application/vnd.openxmlformats-officedocument.spreadsheetml.sheet": {
                "schema": {
                  "$ref": "#/components/schemas/searchResult"
                },
                "example": "<searchResult> <_links> <self> <href>string</href> <title>string</title> <type>string</type> </self> <searchResults> <href>string</href> <title>string</title> <type>string</type> </searchResults> </_links> </searchResult>"
              },
              "application/vnd.ms-excel": {
                "schema": {
                  "$ref": "#/components/schemas/searchResult"
                },
                "examples": {
                  "default": {
                    "value": null
                  }
                }
              },
              "application/odm+xml": {
                "schema": {
                  "$ref": "#/components/schemas/searchResult"
                },
                "example": "<searchResult> <_links> <self> <href>string</href> <title>string</title> <type>string</type> </self> <searchResults> <href>string</href> <title>string</title> <type>string</type> </searchResults> </_links> </searchResult>"
              },
              "application/gzip": {
                "schema": {
                  "$ref": "#/components/schemas/searchResult"
                },
                "examples": {
                  "default": {
                    "value": null
                  }
                }
              }
            }
          },
          "400": {
            "description": "Bad Request",
            "content": {
              "application/json": {
                "schema": {
                  "$ref": "#/components/schemas/error"
                },
                "example": {
                  "statusCode": "string",
                  "reasonPhrase": "string",
                  "userMessage": "string",
                  "adminMessage": "string"
                }
              },
              "application/xml": {
                "schema": {
                  "$ref": "#/components/schemas/error"
                },
                "example": "<error> <statusCode>string</statusCode> <reasonPhrase>string</reasonPhrase> <userMessage>string</userMessage> <adminMessage>string</adminMessage> </error>"
              },
              "text/csv": {
                "schema": {
                  "$ref": "#/components/schemas/error"
                },
                "examples": {
                  "default": {
                    "value": null
                  }
                }
              },
              "application/vnd.openxmlformats-officedocument.spreadsheetml.sheet": {
                "schema": {
                  "$ref": "#/components/schemas/error"
                },
                "example": "<error> <statusCode>string</statusCode> <reasonPhrase>string</reasonPhrase> <userMessage>string</userMessage> <adminMessage>string</adminMessage> </error>"
              },
              "application/vnd.ms-excel": {
                "schema": {
                  "$ref": "#/components/schemas/error"
                },
                "examples": {
                  "default": {
                    "value": null
                  }
                }
              },
              "application/odm+xml": {
                "schema": {
                  "$ref": "#/components/schemas/error"
                },
                "example": "<error> <statusCode>string</statusCode> <reasonPhrase>string</reasonPhrase> <userMessage>string</userMessage> <adminMessage>string</adminMessage> </error>"
              },
              "application/gzip": {
                "schema": {
                  "$ref": "#/components/schemas/error"
                },
                "examples": {
                  "default": {
                    "value": null
                  }
                }
              }
            }
          },
          "401": {
            "description": "Unauthorized",
            "headers": {
              "WWW_Authenticate": {
                "schema": {
                  "type": "string"
                }
              }
            },
            "content": {
              "application/json": {
                "schema": {
                  "$ref": "#/components/schemas/error"
                },
                "example": {
                  "statusCode": "string",
                  "reasonPhrase": "string",
                  "userMessage": "string",
                  "adminMessage": "string"
                }
              },
              "application/xml": {
                "schema": {
                  "$ref": "#/components/schemas/error"
                },
                "example": "<error> <statusCode>string</statusCode> <reasonPhrase>string</reasonPhrase> <userMessage>string</userMessage> <adminMessage>string</adminMessage> </error>"
              },
              "text/csv": {
                "schema": {
                  "$ref": "#/components/schemas/error"
                },
                "examples": {
                  "default": {
                    "value": null
                  }
                }
              },
              "application/vnd.openxmlformats-officedocument.spreadsheetml.sheet": {
                "schema": {
                  "$ref": "#/components/schemas/error"
                },
                "example": "<error> <statusCode>string</statusCode> <reasonPhrase>string</reasonPhrase> <userMessage>string</userMessage> <adminMessage>string</adminMessage> </error>"
              },
              "application/vnd.ms-excel": {
                "schema": {
                  "$ref": "#/components/schemas/error"
                },
                "examples": {
                  "default": {
                    "value": null
                  }
                }
              },
              "application/odm+xml": {
                "schema": {
                  "$ref": "#/components/schemas/error"
                },
                "example": "<error> <statusCode>string</statusCode> <reasonPhrase>string</reasonPhrase> <userMessage>string</userMessage> <adminMessage>string</adminMessage> </error>"
              },
              "application/gzip": {
                "schema": {
                  "$ref": "#/components/schemas/error"
                },
                "examples": {
                  "default": {
                    "value": null
                  }
                }
              }
            }
          },
          "403": {
            "description": "Forbidden",
            "content": {
              "application/json": {
                "schema": {
                  "$ref": "#/components/schemas/error"
                },
                "example": {
                  "statusCode": "string",
                  "reasonPhrase": "string",
                  "userMessage": "string",
                  "adminMessage": "string"
                }
              },
              "application/xml": {
                "schema": {
                  "$ref": "#/components/schemas/error"
                },
                "example": "<error> <statusCode>string</statusCode> <reasonPhrase>string</reasonPhrase> <userMessage>string</userMessage> <adminMessage>string</adminMessage> </error>"
              },
              "text/csv": {
                "schema": {
                  "$ref": "#/components/schemas/error"
                },
                "examples": {
                  "default": {
                    "value": null
                  }
                }
              },
              "application/vnd.openxmlformats-officedocument.spreadsheetml.sheet": {
                "schema": {
                  "$ref": "#/components/schemas/error"
                },
                "example": "<error> <statusCode>string</statusCode> <reasonPhrase>string</reasonPhrase> <userMessage>string</userMessage> <adminMessage>string</adminMessage> </error>"
              },
              "application/vnd.ms-excel": {
                "schema": {
                  "$ref": "#/components/schemas/error"
                },
                "examples": {
                  "default": {
                    "value": null
                  }
                }
              },
              "application/odm+xml": {
                "schema": {
                  "$ref": "#/components/schemas/error"
                },
                "example": "<error> <statusCode>string</statusCode> <reasonPhrase>string</reasonPhrase> <userMessage>string</userMessage> <adminMessage>string</adminMessage> </error>"
              },
              "application/gzip": {
                "schema": {
                  "$ref": "#/components/schemas/error"
                },
                "examples": {
                  "default": {
                    "value": null
                  }
                }
              }
            }
          },
          "404": {
            "description": "Not Found",
            "content": {
              "application/json": {
                "schema": {
                  "$ref": "#/components/schemas/error"
                },
                "example": {
                  "statusCode": "string",
                  "reasonPhrase": "string",
                  "userMessage": "string",
                  "adminMessage": "string"
                }
              },
              "application/xml": {
                "schema": {
                  "$ref": "#/components/schemas/error"
                },
                "example": "<error> <statusCode>string</statusCode> <reasonPhrase>string</reasonPhrase> <userMessage>string</userMessage> <adminMessage>string</adminMessage> </error>"
              },
              "text/csv": {
                "schema": {
                  "$ref": "#/components/schemas/error"
                },
                "examples": {
                  "default": {
                    "value": null
                  }
                }
              },
              "application/vnd.openxmlformats-officedocument.spreadsheetml.sheet": {
                "schema": {
                  "$ref": "#/components/schemas/error"
                },
                "example": "<error> <statusCode>string</statusCode> <reasonPhrase>string</reasonPhrase> <userMessage>string</userMessage> <adminMessage>string</adminMessage> </error>"
              },
              "application/vnd.ms-excel": {
                "schema": {
                  "$ref": "#/components/schemas/error"
                },
                "examples": {
                  "default": {
                    "value": null
                  }
                }
              },
              "application/odm+xml": {
                "schema": {
                  "$ref": "#/components/schemas/error"
                },
                "example": "<error> <statusCode>string</statusCode> <reasonPhrase>string</reasonPhrase> <userMessage>string</userMessage> <adminMessage>string</adminMessage> </error>"
              },
              "application/gzip": {
                "schema": {
                  "$ref": "#/components/schemas/error"
                },
                "examples": {
                  "default": {
                    "value": null
                  }
                }
              }
            }
          },
          "406": {
            "description": "Not Acceptable",
            "content": {
              "application/json": {
                "schema": {
                  "$ref": "#/components/schemas/error"
                },
                "example": {
                  "statusCode": "string",
                  "reasonPhrase": "string",
                  "userMessage": "string",
                  "adminMessage": "string"
                }
              },
              "application/xml": {
                "schema": {
                  "$ref": "#/components/schemas/error"
                },
                "example": "<error> <statusCode>string</statusCode> <reasonPhrase>string</reasonPhrase> <userMessage>string</userMessage> <adminMessage>string</adminMessage> </error>"
              },
              "text/csv": {
                "schema": {
                  "$ref": "#/components/schemas/error"
                },
                "examples": {
                  "default": {
                    "value": null
                  }
                }
              },
              "application/vnd.openxmlformats-officedocument.spreadsheetml.sheet": {
                "schema": {
                  "$ref": "#/components/schemas/error"
                },
                "example": "<error> <statusCode>string</statusCode> <reasonPhrase>string</reasonPhrase> <userMessage>string</userMessage> <adminMessage>string</adminMessage> </error>"
              },
              "application/vnd.ms-excel": {
                "schema": {
                  "$ref": "#/components/schemas/error"
                },
                "examples": {
                  "default": {
                    "value": null
                  }
                }
              },
              "application/odm+xml": {
                "schema": {
                  "$ref": "#/components/schemas/error"
                },
                "example": "<error> <statusCode>string</statusCode> <reasonPhrase>string</reasonPhrase> <userMessage>string</userMessage> <adminMessage>string</adminMessage> </error>"
              },
              "application/gzip": {
                "schema": {
                  "$ref": "#/components/schemas/error"
                },
                "examples": {
                  "default": {
                    "value": null
                  }
                }
              }
            }
          },
          "500": {
            "description": "Internal Server Error",
            "content": {
              "application/json": {
                "schema": {
                  "$ref": "#/components/schemas/error"
                },
                "example": {
                  "statusCode": "string",
                  "reasonPhrase": "string",
                  "userMessage": "string",
                  "adminMessage": "string"
                }
              },
              "application/xml": {
                "schema": {
                  "$ref": "#/components/schemas/error"
                },
                "example": "<error> <statusCode>string</statusCode> <reasonPhrase>string</reasonPhrase> <userMessage>string</userMessage> <adminMessage>string</adminMessage> </error>"
              },
              "text/csv": {
                "schema": {
                  "$ref": "#/components/schemas/error"
                },
                "examples": {
                  "default": {
                    "value": null
                  }
                }
              },
              "application/vnd.openxmlformats-officedocument.spreadsheetml.sheet": {
                "schema": {
                  "$ref": "#/components/schemas/error"
                },
                "example": "<error> <statusCode>string</statusCode> <reasonPhrase>string</reasonPhrase> <userMessage>string</userMessage> <adminMessage>string</adminMessage> </error>"
              },
              "application/vnd.ms-excel": {
                "schema": {
                  "$ref": "#/components/schemas/error"
                },
                "examples": {
                  "default": {
                    "value": null
                  }
                }
              },
              "application/odm+xml": {
                "schema": {
                  "$ref": "#/components/schemas/error"
                },
                "example": "<error> <statusCode>string</statusCode> <reasonPhrase>string</reasonPhrase> <userMessage>string</userMessage> <adminMessage>string</adminMessage> </error>"
              },
              "application/gzip": {
                "schema": {
                  "$ref": "#/components/schemas/error"
                },
                "examples": {
                  "default": {
                    "value": null
                  }
                }
              }
            }
          },
          "503": {
            "description": "Service Unavailable",
            "content": {
              "application/json": {
                "schema": {
                  "$ref": "#/components/schemas/error"
                },
                "example": {
                  "statusCode": "string",
                  "reasonPhrase": "string",
                  "userMessage": "string",
                  "adminMessage": "string"
                }
              },
              "application/xml": {
                "schema": {
                  "$ref": "#/components/schemas/error"
                },
                "example": "<error> <statusCode>string</statusCode> <reasonPhrase>string</reasonPhrase> <userMessage>string</userMessage> <adminMessage>string</adminMessage> </error>"
              },
              "text/csv": {
                "schema": {
                  "$ref": "#/components/schemas/error"
                },
                "examples": {
                  "default": {
                    "value": null
                  }
                }
              },
              "application/vnd.openxmlformats-officedocument.spreadsheetml.sheet": {
                "schema": {
                  "$ref": "#/components/schemas/error"
                },
                "example": "<error> <statusCode>string</statusCode> <reasonPhrase>string</reasonPhrase> <userMessage>string</userMessage> <adminMessage>string</adminMessage> </error>"
              },
              "application/vnd.ms-excel": {
                "schema": {
                  "$ref": "#/components/schemas/error"
                },
                "examples": {
                  "default": {
                    "value": null
                  }
                }
              },
              "application/odm+xml": {
                "schema": {
                  "$ref": "#/components/schemas/error"
                },
                "example": "<error> <statusCode>string</statusCode> <reasonPhrase>string</reasonPhrase> <userMessage>string</userMessage> <adminMessage>string</adminMessage> </error>"
              },
              "application/gzip": {
                "schema": {
                  "$ref": "#/components/schemas/error"
                },
                "examples": {
                  "default": {
                    "value": null
                  }
                }
              }
            }
          }
        }
      }
    },
    "/mdr/search/scopes/{scope}": {
      "get": {
        "tags": [
          "Searches"
        ],
        "summary": "Get Search Results Limited to Scope",
        "description": "Get Search Results Limited to Scope",
        "operationId": "api-search-search_scope",
        "parameters": [
          {
            "name": "scope",
            "in": "path",
            "description": "Search Scope",
            "required": true,
            "schema": {
              "enum": [
                "registrationStatus",
                "type",
                "submissionValue",
                "sdtmTarget",
                "conceptId",
                "href",
                "valueDomain",
                "synonyms",
                "version",
                "simpleDatatype",
                "core",
                "domain",
                "preferredTerm",
                "name",
                "codelist",
                "description",
                "uiHref",
                "definition",
                "class",
                "extensible",
                "product",
                "dataStructure",
                "label",
                "variableSet",
                "productGroup",
                "dataset",
                "datasetStructure",
                "roleDescription",
                "effectiveDate"
              ],
              "type": "string"
            }
          }
        ],
        "responses": {
          "200": {
            "description": "OK",
            "content": {
              "application/json": {
                "schema": {
                  "$ref": "#/components/schemas/searchResult"
                },
                "example": {
                  "_links": {
                    "self": {
                      "href": "string",
                      "title": "string",
                      "type": "string"
                    },
                    "searchResults": [
                      {
                        "href": "string",
                        "title": "string",
                        "type": "string"
                      }
                    ]
                  }
                }
              },
              "application/xml": {
                "schema": {
                  "$ref": "#/components/schemas/searchResult"
                },
                "example": "<searchResult> <_links> <self> <href>string</href> <title>string</title> <type>string</type> </self> <searchResults> <href>string</href> <title>string</title> <type>string</type> </searchResults> </_links> </searchResult>"
              },
              "text/csv": {
                "schema": {
                  "$ref": "#/components/schemas/searchResult"
                },
                "examples": {
                  "default": {
                    "value": null
                  }
                }
              },
              "application/vnd.openxmlformats-officedocument.spreadsheetml.sheet": {
                "schema": {
                  "$ref": "#/components/schemas/searchResult"
                },
                "example": "<searchResult> <_links> <self> <href>string</href> <title>string</title> <type>string</type> </self> <searchResults> <href>string</href> <title>string</title> <type>string</type> </searchResults> </_links> </searchResult>"
              },
              "application/vnd.ms-excel": {
                "schema": {
                  "$ref": "#/components/schemas/searchResult"
                },
                "examples": {
                  "default": {
                    "value": null
                  }
                }
              },
              "application/odm+xml": {
                "schema": {
                  "$ref": "#/components/schemas/searchResult"
                },
                "example": "<searchResult> <_links> <self> <href>string</href> <title>string</title> <type>string</type> </self> <searchResults> <href>string</href> <title>string</title> <type>string</type> </searchResults> </_links> </searchResult>"
              },
              "application/gzip": {
                "schema": {
                  "$ref": "#/components/schemas/searchResult"
                },
                "examples": {
                  "default": {
                    "value": null
                  }
                }
              }
            }
          },
          "400": {
            "description": "Bad Request",
            "content": {
              "application/json": {
                "schema": {
                  "$ref": "#/components/schemas/error"
                },
                "example": {
                  "statusCode": "string",
                  "reasonPhrase": "string",
                  "userMessage": "string",
                  "adminMessage": "string"
                }
              },
              "application/xml": {
                "schema": {
                  "$ref": "#/components/schemas/error"
                },
                "example": "<error> <statusCode>string</statusCode> <reasonPhrase>string</reasonPhrase> <userMessage>string</userMessage> <adminMessage>string</adminMessage> </error>"
              },
              "text/csv": {
                "schema": {
                  "$ref": "#/components/schemas/error"
                },
                "examples": {
                  "default": {
                    "value": null
                  }
                }
              },
              "application/vnd.openxmlformats-officedocument.spreadsheetml.sheet": {
                "schema": {
                  "$ref": "#/components/schemas/error"
                },
                "example": "<error> <statusCode>string</statusCode> <reasonPhrase>string</reasonPhrase> <userMessage>string</userMessage> <adminMessage>string</adminMessage> </error>"
              },
              "application/vnd.ms-excel": {
                "schema": {
                  "$ref": "#/components/schemas/error"
                },
                "examples": {
                  "default": {
                    "value": null
                  }
                }
              },
              "application/odm+xml": {
                "schema": {
                  "$ref": "#/components/schemas/error"
                },
                "example": "<error> <statusCode>string</statusCode> <reasonPhrase>string</reasonPhrase> <userMessage>string</userMessage> <adminMessage>string</adminMessage> </error>"
              },
              "application/gzip": {
                "schema": {
                  "$ref": "#/components/schemas/error"
                },
                "examples": {
                  "default": {
                    "value": null
                  }
                }
              }
            }
          },
          "401": {
            "description": "Unauthorized",
            "headers": {
              "WWW_Authenticate": {
                "schema": {
                  "type": "string"
                }
              }
            },
            "content": {
              "application/json": {
                "schema": {
                  "$ref": "#/components/schemas/error"
                },
                "example": {
                  "statusCode": "string",
                  "reasonPhrase": "string",
                  "userMessage": "string",
                  "adminMessage": "string"
                }
              },
              "application/xml": {
                "schema": {
                  "$ref": "#/components/schemas/error"
                },
                "example": "<error> <statusCode>string</statusCode> <reasonPhrase>string</reasonPhrase> <userMessage>string</userMessage> <adminMessage>string</adminMessage> </error>"
              },
              "text/csv": {
                "schema": {
                  "$ref": "#/components/schemas/error"
                },
                "examples": {
                  "default": {
                    "value": null
                  }
                }
              },
              "application/vnd.openxmlformats-officedocument.spreadsheetml.sheet": {
                "schema": {
                  "$ref": "#/components/schemas/error"
                },
                "example": "<error> <statusCode>string</statusCode> <reasonPhrase>string</reasonPhrase> <userMessage>string</userMessage> <adminMessage>string</adminMessage> </error>"
              },
              "application/vnd.ms-excel": {
                "schema": {
                  "$ref": "#/components/schemas/error"
                },
                "examples": {
                  "default": {
                    "value": null
                  }
                }
              },
              "application/odm+xml": {
                "schema": {
                  "$ref": "#/components/schemas/error"
                },
                "example": "<error> <statusCode>string</statusCode> <reasonPhrase>string</reasonPhrase> <userMessage>string</userMessage> <adminMessage>string</adminMessage> </error>"
              },
              "application/gzip": {
                "schema": {
                  "$ref": "#/components/schemas/error"
                },
                "examples": {
                  "default": {
                    "value": null
                  }
                }
              }
            }
          },
          "403": {
            "description": "Forbidden",
            "content": {
              "application/json": {
                "schema": {
                  "$ref": "#/components/schemas/error"
                },
                "example": {
                  "statusCode": "string",
                  "reasonPhrase": "string",
                  "userMessage": "string",
                  "adminMessage": "string"
                }
              },
              "application/xml": {
                "schema": {
                  "$ref": "#/components/schemas/error"
                },
                "example": "<error> <statusCode>string</statusCode> <reasonPhrase>string</reasonPhrase> <userMessage>string</userMessage> <adminMessage>string</adminMessage> </error>"
              },
              "text/csv": {
                "schema": {
                  "$ref": "#/components/schemas/error"
                },
                "examples": {
                  "default": {
                    "value": null
                  }
                }
              },
              "application/vnd.openxmlformats-officedocument.spreadsheetml.sheet": {
                "schema": {
                  "$ref": "#/components/schemas/error"
                },
                "example": "<error> <statusCode>string</statusCode> <reasonPhrase>string</reasonPhrase> <userMessage>string</userMessage> <adminMessage>string</adminMessage> </error>"
              },
              "application/vnd.ms-excel": {
                "schema": {
                  "$ref": "#/components/schemas/error"
                },
                "examples": {
                  "default": {
                    "value": null
                  }
                }
              },
              "application/odm+xml": {
                "schema": {
                  "$ref": "#/components/schemas/error"
                },
                "example": "<error> <statusCode>string</statusCode> <reasonPhrase>string</reasonPhrase> <userMessage>string</userMessage> <adminMessage>string</adminMessage> </error>"
              },
              "application/gzip": {
                "schema": {
                  "$ref": "#/components/schemas/error"
                },
                "examples": {
                  "default": {
                    "value": null
                  }
                }
              }
            }
          },
          "404": {
            "description": "Not Found",
            "content": {
              "application/json": {
                "schema": {
                  "$ref": "#/components/schemas/error"
                },
                "example": {
                  "statusCode": "string",
                  "reasonPhrase": "string",
                  "userMessage": "string",
                  "adminMessage": "string"
                }
              },
              "application/xml": {
                "schema": {
                  "$ref": "#/components/schemas/error"
                },
                "example": "<error> <statusCode>string</statusCode> <reasonPhrase>string</reasonPhrase> <userMessage>string</userMessage> <adminMessage>string</adminMessage> </error>"
              },
              "text/csv": {
                "schema": {
                  "$ref": "#/components/schemas/error"
                },
                "examples": {
                  "default": {
                    "value": null
                  }
                }
              },
              "application/vnd.openxmlformats-officedocument.spreadsheetml.sheet": {
                "schema": {
                  "$ref": "#/components/schemas/error"
                },
                "example": "<error> <statusCode>string</statusCode> <reasonPhrase>string</reasonPhrase> <userMessage>string</userMessage> <adminMessage>string</adminMessage> </error>"
              },
              "application/vnd.ms-excel": {
                "schema": {
                  "$ref": "#/components/schemas/error"
                },
                "examples": {
                  "default": {
                    "value": null
                  }
                }
              },
              "application/odm+xml": {
                "schema": {
                  "$ref": "#/components/schemas/error"
                },
                "example": "<error> <statusCode>string</statusCode> <reasonPhrase>string</reasonPhrase> <userMessage>string</userMessage> <adminMessage>string</adminMessage> </error>"
              },
              "application/gzip": {
                "schema": {
                  "$ref": "#/components/schemas/error"
                },
                "examples": {
                  "default": {
                    "value": null
                  }
                }
              }
            }
          },
          "406": {
            "description": "Not Acceptable",
            "content": {
              "application/json": {
                "schema": {
                  "$ref": "#/components/schemas/error"
                },
                "example": {
                  "statusCode": "string",
                  "reasonPhrase": "string",
                  "userMessage": "string",
                  "adminMessage": "string"
                }
              },
              "application/xml": {
                "schema": {
                  "$ref": "#/components/schemas/error"
                },
                "example": "<error> <statusCode>string</statusCode> <reasonPhrase>string</reasonPhrase> <userMessage>string</userMessage> <adminMessage>string</adminMessage> </error>"
              },
              "text/csv": {
                "schema": {
                  "$ref": "#/components/schemas/error"
                },
                "examples": {
                  "default": {
                    "value": null
                  }
                }
              },
              "application/vnd.openxmlformats-officedocument.spreadsheetml.sheet": {
                "schema": {
                  "$ref": "#/components/schemas/error"
                },
                "example": "<error> <statusCode>string</statusCode> <reasonPhrase>string</reasonPhrase> <userMessage>string</userMessage> <adminMessage>string</adminMessage> </error>"
              },
              "application/vnd.ms-excel": {
                "schema": {
                  "$ref": "#/components/schemas/error"
                },
                "examples": {
                  "default": {
                    "value": null
                  }
                }
              },
              "application/odm+xml": {
                "schema": {
                  "$ref": "#/components/schemas/error"
                },
                "example": "<error> <statusCode>string</statusCode> <reasonPhrase>string</reasonPhrase> <userMessage>string</userMessage> <adminMessage>string</adminMessage> </error>"
              },
              "application/gzip": {
                "schema": {
                  "$ref": "#/components/schemas/error"
                },
                "examples": {
                  "default": {
                    "value": null
                  }
                }
              }
            }
          },
          "500": {
            "description": "Internal Server Error",
            "content": {
              "application/json": {
                "schema": {
                  "$ref": "#/components/schemas/error"
                },
                "example": {
                  "statusCode": "string",
                  "reasonPhrase": "string",
                  "userMessage": "string",
                  "adminMessage": "string"
                }
              },
              "application/xml": {
                "schema": {
                  "$ref": "#/components/schemas/error"
                },
                "example": "<error> <statusCode>string</statusCode> <reasonPhrase>string</reasonPhrase> <userMessage>string</userMessage> <adminMessage>string</adminMessage> </error>"
              },
              "text/csv": {
                "schema": {
                  "$ref": "#/components/schemas/error"
                },
                "examples": {
                  "default": {
                    "value": null
                  }
                }
              },
              "application/vnd.openxmlformats-officedocument.spreadsheetml.sheet": {
                "schema": {
                  "$ref": "#/components/schemas/error"
                },
                "example": "<error> <statusCode>string</statusCode> <reasonPhrase>string</reasonPhrase> <userMessage>string</userMessage> <adminMessage>string</adminMessage> </error>"
              },
              "application/vnd.ms-excel": {
                "schema": {
                  "$ref": "#/components/schemas/error"
                },
                "examples": {
                  "default": {
                    "value": null
                  }
                }
              },
              "application/odm+xml": {
                "schema": {
                  "$ref": "#/components/schemas/error"
                },
                "example": "<error> <statusCode>string</statusCode> <reasonPhrase>string</reasonPhrase> <userMessage>string</userMessage> <adminMessage>string</adminMessage> </error>"
              },
              "application/gzip": {
                "schema": {
                  "$ref": "#/components/schemas/error"
                },
                "examples": {
                  "default": {
                    "value": null
                  }
                }
              }
            }
          },
          "503": {
            "description": "Service Unavailable",
            "content": {
              "application/json": {
                "schema": {
                  "$ref": "#/components/schemas/error"
                },
                "example": {
                  "statusCode": "string",
                  "reasonPhrase": "string",
                  "userMessage": "string",
                  "adminMessage": "string"
                }
              },
              "application/xml": {
                "schema": {
                  "$ref": "#/components/schemas/error"
                },
                "example": "<error> <statusCode>string</statusCode> <reasonPhrase>string</reasonPhrase> <userMessage>string</userMessage> <adminMessage>string</adminMessage> </error>"
              },
              "text/csv": {
                "schema": {
                  "$ref": "#/components/schemas/error"
                },
                "examples": {
                  "default": {
                    "value": null
                  }
                }
              },
              "application/vnd.openxmlformats-officedocument.spreadsheetml.sheet": {
                "schema": {
                  "$ref": "#/components/schemas/error"
                },
                "example": "<error> <statusCode>string</statusCode> <reasonPhrase>string</reasonPhrase> <userMessage>string</userMessage> <adminMessage>string</adminMessage> </error>"
              },
              "application/vnd.ms-excel": {
                "schema": {
                  "$ref": "#/components/schemas/error"
                },
                "examples": {
                  "default": {
                    "value": null
                  }
                }
              },
              "application/odm+xml": {
                "schema": {
                  "$ref": "#/components/schemas/error"
                },
                "example": "<error> <statusCode>string</statusCode> <reasonPhrase>string</reasonPhrase> <userMessage>string</userMessage> <adminMessage>string</adminMessage> </error>"
              },
              "application/gzip": {
                "schema": {
                  "$ref": "#/components/schemas/error"
                },
                "examples": {
                  "default": {
                    "value": null
                  }
                }
              }
            }
          }
        }
      }
    },
    "/mdr/products": {
      "get": {
        "summary": "Get CDISC Library Product List",
        "description": "Get CDISC Library Product List",
        "operationId": "api-products-products-get_products",
        "parameters": [
          {
            "name": "expand",
            "in": "query",
            "description": "If true, entity links will be hydrated and returned within the response (e.g. Fields, Domains, Classes)",
            "schema": {
              "type": "boolean",
              "default": false
            }
          }
        ],
        "responses": {
          "200": {
            "description": "OK",
            "content": {
              "application/json": {
                "schema": {
                  "$ref": "#/components/schemas/products"
                },
                "example": {
                  "_links": {
                    "self": {
                      "href": "string",
                      "title": "string",
                      "type": "string"
                    },
                    "data-collection": {
                      "_links": {
                        "self": {
                          "href": "string",
                          "title": "string",
                          "type": "string"
                        },
                        "cdash": [
                          {
                            "href": "string",
                            "title": "string",
                            "type": "string"
                          }
                        ],
                        "cdashig": [
                          {
                            "href": "string",
                            "title": "string",
                            "type": "string"
                          }
                        ]
                      }
                    },
                    "data-tabulation": {
                      "_links": {
                        "self": {
                          "href": "string",
                          "title": "string",
                          "type": "string"
                        },
                        "sdtm": [
                          {
                            "href": "string",
                            "title": "string",
                            "type": "string"
                          }
                        ],
                        "sdtmig": [
                          {
                            "href": "string",
                            "title": "string",
                            "type": "string"
                          }
                        ],
                        "sendig": [
                          {
                            "href": "string",
                            "title": "string",
                            "type": "string"
                          }
                        ]
                      }
                    },
                    "data-analysis": {
                      "_links": {
                        "self": {
                          "href": "string",
                          "title": "string",
                          "type": "string"
                        },
                        "adam": [
                          {
                            "href": "string",
                            "title": "string",
                            "type": "string"
                          }
                        ]
                      }
                    },
                    "qrs": {
                      "_links": {
                        "self": {
                          "href": "string",
                          "title": "string",
                          "type": "string"
                        },
                        "instrument": [
                          {
                            "href": "string",
                            "title": "string",
                            "type": "string"
                          }
                        ]
                      }
                    },
                    "draft-content": {
                      "_links": {
                        "self": {
                          "href": "string",
                          "title": "string",
                          "type": "string"
                        },
                        "cdash": [
                          {
                            "href": "string",
                            "title": "string",
                            "type": "string"
                          }
                        ],
                        "cdashig": [
                          {
                            "href": "string",
                            "title": "string",
                            "type": "string"
                          }
                        ],
                        "sdtm": [
                          {
                            "href": "string",
                            "title": "string",
                            "type": "string"
                          }
                        ],
                        "sdtmig": [
                          {
                            "href": "string",
                            "title": "string",
                            "type": "string"
                          }
                        ],
                        "sendig": [
                          {
                            "href": "string",
                            "title": "string",
                            "type": "string"
                          }
                        ],
                        "adam": [
                          {
                            "href": "string",
                            "title": "string",
                            "type": "string"
                          }
                        ],
                        "qrs": [
                          {
                            "href": "string",
                            "title": "string",
                            "type": "string"
                          }
                        ]
                      }
                    },
                    "integrated": {
                      "_links": {
                        "self": {
                          "href": "string",
                          "title": "string",
                          "type": "string"
                        }
                      }
                    },
                    "terminology": {
                      "_links": {
                        "self": {
                          "href": "string",
                          "title": "string",
                          "type": "string"
                        },
                        "packages": [
                          {
                            "href": "string",
                            "title": "string",
                            "type": "string"
                          }
                        ]
                      }
                    }
                  }
                }
              },
              "application/xml": {
                "schema": {
                  "$ref": "#/components/schemas/products"
                },
                "example": "<products> <_links> <self> <href>string</href> <title>string</title> <type>string</type> </self> <data-collection> <_links> <self> <href>string</href> <title>string</title> <type>string</type> </self> <cdash> <href>string</href> <title>string</title> <type>string</type> </cdash> <cdashig> <href>string</href> <title>string</title> <type>string</type> </cdashig> </_links> </data-collection> <data-tabulation> <_links> <self> <href>string</href> <title>string</title> <type>string</type> </self> <sdtm> <href>string</href> <title>string</title> <type>string</type> </sdtm> <sdtmig> <href>string</href> <title>string</title> <type>string</type> </sdtmig> <sendig> <href>string</href> <title>string</title> <type>string</type> </sendig> </_links> </data-tabulation> <data-analysis> <_links> <self> <href>string</href> <title>string</title> <type>string</type> </self> <adam> <href>string</href> <title>string</title> <type>string</type> </adam> </_links> </data-analysis> <qrs> <_links> <self> <href>string</href> <title>string</title> <type>string</type> </self> <instrument> <href>string</href> <title>string</title> <type>string</type> </instrument> </_links> </qrs> <draft-content> <_links> <self> <href>string</href> <title>string</title> <type>string</type> </self> <cdash> <href>string</href> <title>string</title> <type>string</type> </cdash> <cdashig> <href>string</href> <title>string</title> <type>string</type> </cdashig> <sdtm> <href>string</href> <title>string</title> <type>string</type> </sdtm> <sdtmig> <href>string</href> <title>string</title> <type>string</type> </sdtmig> <sendig> <href>string</href> <title>string</title> <type>string</type> </sendig> <adam> <href>string</href> <title>string</title> <type>string</type> </adam> <qrs> <href>string</href> <title>string</title> <type>string</type> </qrs> </_links> </draft-content> <integrated> <_links> <self> <href>string</href> <title>string</title> <type>string</type> </self> </_links> </integrated> <terminology> <_links> <self> <href>string</href> <title>string</title> <type>string</type> </self> <packages> <href>string</href> <title>string</title> <type>string</type> </packages> </_links> </terminology> </_links> </products>"
              },
              "text/csv": {
                "schema": {
                  "$ref": "#/components/schemas/products"
                },
                "examples": {
                  "default": {
                    "value": null
                  }
                }
              },
              "application/vnd.openxmlformats-officedocument.spreadsheetml.sheet": {
                "schema": {
                  "$ref": "#/components/schemas/products"
                },
                "example": "<products> <_links> <self> <href>string</href> <title>string</title> <type>string</type> </self> <data-collection> <_links> <self> <href>string</href> <title>string</title> <type>string</type> </self> <cdash> <href>string</href> <title>string</title> <type>string</type> </cdash> <cdashig> <href>string</href> <title>string</title> <type>string</type> </cdashig> </_links> </data-collection> <data-tabulation> <_links> <self> <href>string</href> <title>string</title> <type>string</type> </self> <sdtm> <href>string</href> <title>string</title> <type>string</type> </sdtm> <sdtmig> <href>string</href> <title>string</title> <type>string</type> </sdtmig> <sendig> <href>string</href> <title>string</title> <type>string</type> </sendig> </_links> </data-tabulation> <data-analysis> <_links> <self> <href>string</href> <title>string</title> <type>string</type> </self> <adam> <href>string</href> <title>string</title> <type>string</type> </adam> </_links> </data-analysis> <qrs> <_links> <self> <href>string</href> <title>string</title> <type>string</type> </self> <instrument> <href>string</href> <title>string</title> <type>string</type> </instrument> </_links> </qrs> <draft-content> <_links> <self> <href>string</href> <title>string</title> <type>string</type> </self> <cdash> <href>string</href> <title>string</title> <type>string</type> </cdash> <cdashig> <href>string</href> <title>string</title> <type>string</type> </cdashig> <sdtm> <href>string</href> <title>string</title> <type>string</type> </sdtm> <sdtmig> <href>string</href> <title>string</title> <type>string</type> </sdtmig> <sendig> <href>string</href> <title>string</title> <type>string</type> </sendig> <adam> <href>string</href> <title>string</title> <type>string</type> </adam> <qrs> <href>string</href> <title>string</title> <type>string</type> </qrs> </_links> </draft-content> <integrated> <_links> <self> <href>string</href> <title>string</title> <type>string</type> </self> </_links> </integrated> <terminology> <_links> <self> <href>string</href> <title>string</title> <type>string</type> </self> <packages> <href>string</href> <title>string</title> <type>string</type> </packages> </_links> </terminology> </_links> </products>"
              },
              "application/vnd.ms-excel": {
                "schema": {
                  "$ref": "#/components/schemas/products"
                },
                "examples": {
                  "default": {
                    "value": null
                  }
                }
              },
              "application/odm+xml": {
                "schema": {
                  "$ref": "#/components/schemas/products"
                },
                "example": "<products> <_links> <self> <href>string</href> <title>string</title> <type>string</type> </self> <data-collection> <_links> <self> <href>string</href> <title>string</title> <type>string</type> </self> <cdash> <href>string</href> <title>string</title> <type>string</type> </cdash> <cdashig> <href>string</href> <title>string</title> <type>string</type> </cdashig> </_links> </data-collection> <data-tabulation> <_links> <self> <href>string</href> <title>string</title> <type>string</type> </self> <sdtm> <href>string</href> <title>string</title> <type>string</type> </sdtm> <sdtmig> <href>string</href> <title>string</title> <type>string</type> </sdtmig> <sendig> <href>string</href> <title>string</title> <type>string</type> </sendig> </_links> </data-tabulation> <data-analysis> <_links> <self> <href>string</href> <title>string</title> <type>string</type> </self> <adam> <href>string</href> <title>string</title> <type>string</type> </adam> </_links> </data-analysis> <qrs> <_links> <self> <href>string</href> <title>string</title> <type>string</type> </self> <instrument> <href>string</href> <title>string</title> <type>string</type> </instrument> </_links> </qrs> <draft-content> <_links> <self> <href>string</href> <title>string</title> <type>string</type> </self> <cdash> <href>string</href> <title>string</title> <type>string</type> </cdash> <cdashig> <href>string</href> <title>string</title> <type>string</type> </cdashig> <sdtm> <href>string</href> <title>string</title> <type>string</type> </sdtm> <sdtmig> <href>string</href> <title>string</title> <type>string</type> </sdtmig> <sendig> <href>string</href> <title>string</title> <type>string</type> </sendig> <adam> <href>string</href> <title>string</title> <type>string</type> </adam> <qrs> <href>string</href> <title>string</title> <type>string</type> </qrs> </_links> </draft-content> <integrated> <_links> <self> <href>string</href> <title>string</title> <type>string</type> </self> </_links> </integrated> <terminology> <_links> <self> <href>string</href> <title>string</title> <type>string</type> </self> <packages> <href>string</href> <title>string</title> <type>string</type> </packages> </_links> </terminology> </_links> </products>"
              },
              "application/gzip": {
                "schema": {
                  "$ref": "#/components/schemas/products"
                },
                "examples": {
                  "default": {
                    "value": null
                  }
                }
              }
            }
          },
          "400": {
            "description": "Bad Request",
            "content": {
              "application/json": {
                "schema": {
                  "$ref": "#/components/schemas/error"
                },
                "example": {
                  "statusCode": "string",
                  "reasonPhrase": "string",
                  "userMessage": "string",
                  "adminMessage": "string"
                }
              },
              "application/xml": {
                "schema": {
                  "$ref": "#/components/schemas/error"
                },
                "example": "<error> <statusCode>string</statusCode> <reasonPhrase>string</reasonPhrase> <userMessage>string</userMessage> <adminMessage>string</adminMessage> </error>"
              },
              "text/csv": {
                "schema": {
                  "$ref": "#/components/schemas/error"
                },
                "examples": {
                  "default": {
                    "value": null
                  }
                }
              },
              "application/vnd.openxmlformats-officedocument.spreadsheetml.sheet": {
                "schema": {
                  "$ref": "#/components/schemas/error"
                },
                "example": "<error> <statusCode>string</statusCode> <reasonPhrase>string</reasonPhrase> <userMessage>string</userMessage> <adminMessage>string</adminMessage> </error>"
              },
              "application/vnd.ms-excel": {
                "schema": {
                  "$ref": "#/components/schemas/error"
                },
                "examples": {
                  "default": {
                    "value": null
                  }
                }
              },
              "application/odm+xml": {
                "schema": {
                  "$ref": "#/components/schemas/error"
                },
                "example": "<error> <statusCode>string</statusCode> <reasonPhrase>string</reasonPhrase> <userMessage>string</userMessage> <adminMessage>string</adminMessage> </error>"
              },
              "application/gzip": {
                "schema": {
                  "$ref": "#/components/schemas/error"
                },
                "examples": {
                  "default": {
                    "value": null
                  }
                }
              }
            }
          },
          "401": {
            "description": "Unauthorized",
            "headers": {
              "WWW_Authenticate": {
                "schema": {
                  "type": "string"
                }
              }
            },
            "content": {
              "application/json": {
                "schema": {
                  "$ref": "#/components/schemas/error"
                },
                "example": {
                  "statusCode": "string",
                  "reasonPhrase": "string",
                  "userMessage": "string",
                  "adminMessage": "string"
                }
              },
              "application/xml": {
                "schema": {
                  "$ref": "#/components/schemas/error"
                },
                "example": "<error> <statusCode>string</statusCode> <reasonPhrase>string</reasonPhrase> <userMessage>string</userMessage> <adminMessage>string</adminMessage> </error>"
              },
              "text/csv": {
                "schema": {
                  "$ref": "#/components/schemas/error"
                },
                "examples": {
                  "default": {
                    "value": null
                  }
                }
              },
              "application/vnd.openxmlformats-officedocument.spreadsheetml.sheet": {
                "schema": {
                  "$ref": "#/components/schemas/error"
                },
                "example": "<error> <statusCode>string</statusCode> <reasonPhrase>string</reasonPhrase> <userMessage>string</userMessage> <adminMessage>string</adminMessage> </error>"
              },
              "application/vnd.ms-excel": {
                "schema": {
                  "$ref": "#/components/schemas/error"
                },
                "examples": {
                  "default": {
                    "value": null
                  }
                }
              },
              "application/odm+xml": {
                "schema": {
                  "$ref": "#/components/schemas/error"
                },
                "example": "<error> <statusCode>string</statusCode> <reasonPhrase>string</reasonPhrase> <userMessage>string</userMessage> <adminMessage>string</adminMessage> </error>"
              },
              "application/gzip": {
                "schema": {
                  "$ref": "#/components/schemas/error"
                },
                "examples": {
                  "default": {
                    "value": null
                  }
                }
              }
            }
          },
          "403": {
            "description": "Forbidden",
            "content": {
              "application/json": {
                "schema": {
                  "$ref": "#/components/schemas/error"
                },
                "example": {
                  "statusCode": "string",
                  "reasonPhrase": "string",
                  "userMessage": "string",
                  "adminMessage": "string"
                }
              },
              "application/xml": {
                "schema": {
                  "$ref": "#/components/schemas/error"
                },
                "example": "<error> <statusCode>string</statusCode> <reasonPhrase>string</reasonPhrase> <userMessage>string</userMessage> <adminMessage>string</adminMessage> </error>"
              },
              "text/csv": {
                "schema": {
                  "$ref": "#/components/schemas/error"
                },
                "examples": {
                  "default": {
                    "value": null
                  }
                }
              },
              "application/vnd.openxmlformats-officedocument.spreadsheetml.sheet": {
                "schema": {
                  "$ref": "#/components/schemas/error"
                },
                "example": "<error> <statusCode>string</statusCode> <reasonPhrase>string</reasonPhrase> <userMessage>string</userMessage> <adminMessage>string</adminMessage> </error>"
              },
              "application/vnd.ms-excel": {
                "schema": {
                  "$ref": "#/components/schemas/error"
                },
                "examples": {
                  "default": {
                    "value": null
                  }
                }
              },
              "application/odm+xml": {
                "schema": {
                  "$ref": "#/components/schemas/error"
                },
                "example": "<error> <statusCode>string</statusCode> <reasonPhrase>string</reasonPhrase> <userMessage>string</userMessage> <adminMessage>string</adminMessage> </error>"
              },
              "application/gzip": {
                "schema": {
                  "$ref": "#/components/schemas/error"
                },
                "examples": {
                  "default": {
                    "value": null
                  }
                }
              }
            }
          },
          "404": {
            "description": "Not Found",
            "content": {
              "application/json": {
                "schema": {
                  "$ref": "#/components/schemas/error"
                },
                "example": {
                  "statusCode": "string",
                  "reasonPhrase": "string",
                  "userMessage": "string",
                  "adminMessage": "string"
                }
              },
              "application/xml": {
                "schema": {
                  "$ref": "#/components/schemas/error"
                },
                "example": "<error> <statusCode>string</statusCode> <reasonPhrase>string</reasonPhrase> <userMessage>string</userMessage> <adminMessage>string</adminMessage> </error>"
              },
              "text/csv": {
                "schema": {
                  "$ref": "#/components/schemas/error"
                },
                "examples": {
                  "default": {
                    "value": null
                  }
                }
              },
              "application/vnd.openxmlformats-officedocument.spreadsheetml.sheet": {
                "schema": {
                  "$ref": "#/components/schemas/error"
                },
                "example": "<error> <statusCode>string</statusCode> <reasonPhrase>string</reasonPhrase> <userMessage>string</userMessage> <adminMessage>string</adminMessage> </error>"
              },
              "application/vnd.ms-excel": {
                "schema": {
                  "$ref": "#/components/schemas/error"
                },
                "examples": {
                  "default": {
                    "value": null
                  }
                }
              },
              "application/odm+xml": {
                "schema": {
                  "$ref": "#/components/schemas/error"
                },
                "example": "<error> <statusCode>string</statusCode> <reasonPhrase>string</reasonPhrase> <userMessage>string</userMessage> <adminMessage>string</adminMessage> </error>"
              },
              "application/gzip": {
                "schema": {
                  "$ref": "#/components/schemas/error"
                },
                "examples": {
                  "default": {
                    "value": null
                  }
                }
              }
            }
          },
          "406": {
            "description": "Not Acceptable",
            "content": {
              "application/json": {
                "schema": {
                  "$ref": "#/components/schemas/error"
                },
                "example": {
                  "statusCode": "string",
                  "reasonPhrase": "string",
                  "userMessage": "string",
                  "adminMessage": "string"
                }
              },
              "application/xml": {
                "schema": {
                  "$ref": "#/components/schemas/error"
                },
                "example": "<error> <statusCode>string</statusCode> <reasonPhrase>string</reasonPhrase> <userMessage>string</userMessage> <adminMessage>string</adminMessage> </error>"
              },
              "text/csv": {
                "schema": {
                  "$ref": "#/components/schemas/error"
                },
                "examples": {
                  "default": {
                    "value": null
                  }
                }
              },
              "application/vnd.openxmlformats-officedocument.spreadsheetml.sheet": {
                "schema": {
                  "$ref": "#/components/schemas/error"
                },
                "example": "<error> <statusCode>string</statusCode> <reasonPhrase>string</reasonPhrase> <userMessage>string</userMessage> <adminMessage>string</adminMessage> </error>"
              },
              "application/vnd.ms-excel": {
                "schema": {
                  "$ref": "#/components/schemas/error"
                },
                "examples": {
                  "default": {
                    "value": null
                  }
                }
              },
              "application/odm+xml": {
                "schema": {
                  "$ref": "#/components/schemas/error"
                },
                "example": "<error> <statusCode>string</statusCode> <reasonPhrase>string</reasonPhrase> <userMessage>string</userMessage> <adminMessage>string</adminMessage> </error>"
              },
              "application/gzip": {
                "schema": {
                  "$ref": "#/components/schemas/error"
                },
                "examples": {
                  "default": {
                    "value": null
                  }
                }
              }
            }
          },
          "500": {
            "description": "Internal Server Error",
            "content": {
              "application/json": {
                "schema": {
                  "$ref": "#/components/schemas/error"
                },
                "example": {
                  "statusCode": "string",
                  "reasonPhrase": "string",
                  "userMessage": "string",
                  "adminMessage": "string"
                }
              },
              "application/xml": {
                "schema": {
                  "$ref": "#/components/schemas/error"
                },
                "example": "<error> <statusCode>string</statusCode> <reasonPhrase>string</reasonPhrase> <userMessage>string</userMessage> <adminMessage>string</adminMessage> </error>"
              },
              "text/csv": {
                "schema": {
                  "$ref": "#/components/schemas/error"
                },
                "examples": {
                  "default": {
                    "value": null
                  }
                }
              },
              "application/vnd.openxmlformats-officedocument.spreadsheetml.sheet": {
                "schema": {
                  "$ref": "#/components/schemas/error"
                },
                "example": "<error> <statusCode>string</statusCode> <reasonPhrase>string</reasonPhrase> <userMessage>string</userMessage> <adminMessage>string</adminMessage> </error>"
              },
              "application/vnd.ms-excel": {
                "schema": {
                  "$ref": "#/components/schemas/error"
                },
                "examples": {
                  "default": {
                    "value": null
                  }
                }
              },
              "application/odm+xml": {
                "schema": {
                  "$ref": "#/components/schemas/error"
                },
                "example": "<error> <statusCode>string</statusCode> <reasonPhrase>string</reasonPhrase> <userMessage>string</userMessage> <adminMessage>string</adminMessage> </error>"
              },
              "application/gzip": {
                "schema": {
                  "$ref": "#/components/schemas/error"
                },
                "examples": {
                  "default": {
                    "value": null
                  }
                }
              }
            }
          },
          "503": {
            "description": "Service Unavailable",
            "content": {
              "application/json": {
                "schema": {
                  "$ref": "#/components/schemas/error"
                },
                "example": {
                  "statusCode": "string",
                  "reasonPhrase": "string",
                  "userMessage": "string",
                  "adminMessage": "string"
                }
              },
              "application/xml": {
                "schema": {
                  "$ref": "#/components/schemas/error"
                },
                "example": "<error> <statusCode>string</statusCode> <reasonPhrase>string</reasonPhrase> <userMessage>string</userMessage> <adminMessage>string</adminMessage> </error>"
              },
              "text/csv": {
                "schema": {
                  "$ref": "#/components/schemas/error"
                },
                "examples": {
                  "default": {
                    "value": null
                  }
                }
              },
              "application/vnd.openxmlformats-officedocument.spreadsheetml.sheet": {
                "schema": {
                  "$ref": "#/components/schemas/error"
                },
                "example": "<error> <statusCode>string</statusCode> <reasonPhrase>string</reasonPhrase> <userMessage>string</userMessage> <adminMessage>string</adminMessage> </error>"
              },
              "application/vnd.ms-excel": {
                "schema": {
                  "$ref": "#/components/schemas/error"
                },
                "examples": {
                  "default": {
                    "value": null
                  }
                }
              },
              "application/odm+xml": {
                "schema": {
                  "$ref": "#/components/schemas/error"
                },
                "example": "<error> <statusCode>string</statusCode> <reasonPhrase>string</reasonPhrase> <userMessage>string</userMessage> <adminMessage>string</adminMessage> </error>"
              },
              "application/gzip": {
                "schema": {
                  "$ref": "#/components/schemas/error"
                },
                "examples": {
                  "default": {
                    "value": null
                  }
                }
              }
            }
          }
        }
      }
    },
    "/mdr/about": {
      "get": {
        "summary": "Get Information About CDISC Library Product",
        "description": "Get Information About CDISC Library Product",
        "operationId": "api-about-get",
        "responses": {
          "200": {
            "description": "OK",
            "content": {
              "application/json": {
                "schema": {
                  "$ref": "#/components/schemas/about"
                },
                "example": {
                  "_links": {
                    "self": {
                      "href": "string",
                      "title": "string",
                      "type": "string"
                    }
                  },
                  "release-notes": "string",
                  "api-documentation": "string"
                }
              },
              "application/xml": {
                "schema": {
                  "$ref": "#/components/schemas/about"
                },
                "example": "<about> <_links> <self> <href>string</href> <title>string</title> <type>string</type> </self> </_links> <release-notes>string</release-notes> <api-documentation>string</api-documentation> </about>"
              },
              "text/csv": {
                "schema": {
                  "$ref": "#/components/schemas/about"
                },
                "examples": {
                  "default": {
                    "value": null
                  }
                }
              },
              "application/vnd.openxmlformats-officedocument.spreadsheetml.sheet": {
                "schema": {
                  "$ref": "#/components/schemas/about"
                },
                "example": "<about> <_links> <self> <href>string</href> <title>string</title> <type>string</type> </self> </_links> <release-notes>string</release-notes> <api-documentation>string</api-documentation> </about>"
              },
              "application/vnd.ms-excel": {
                "schema": {
                  "$ref": "#/components/schemas/about"
                },
                "examples": {
                  "default": {
                    "value": null
                  }
                }
              },
              "application/odm+xml": {
                "schema": {
                  "$ref": "#/components/schemas/about"
                },
                "example": "<about> <_links> <self> <href>string</href> <title>string</title> <type>string</type> </self> </_links> <release-notes>string</release-notes> <api-documentation>string</api-documentation> </about>"
              },
              "application/gzip": {
                "schema": {
                  "$ref": "#/components/schemas/about"
                },
                "examples": {
                  "default": {
                    "value": null
                  }
                }
              }
            }
          },
          "400": {
            "description": "Bad Request",
            "content": {
              "application/json": {
                "schema": {
                  "$ref": "#/components/schemas/error"
                },
                "example": {
                  "statusCode": "string",
                  "reasonPhrase": "string",
                  "userMessage": "string",
                  "adminMessage": "string"
                }
              },
              "application/xml": {
                "schema": {
                  "$ref": "#/components/schemas/error"
                },
                "example": "<error> <statusCode>string</statusCode> <reasonPhrase>string</reasonPhrase> <userMessage>string</userMessage> <adminMessage>string</adminMessage> </error>"
              },
              "text/csv": {
                "schema": {
                  "$ref": "#/components/schemas/error"
                },
                "examples": {
                  "default": {
                    "value": null
                  }
                }
              },
              "application/vnd.openxmlformats-officedocument.spreadsheetml.sheet": {
                "schema": {
                  "$ref": "#/components/schemas/error"
                },
                "example": "<error> <statusCode>string</statusCode> <reasonPhrase>string</reasonPhrase> <userMessage>string</userMessage> <adminMessage>string</adminMessage> </error>"
              },
              "application/vnd.ms-excel": {
                "schema": {
                  "$ref": "#/components/schemas/error"
                },
                "examples": {
                  "default": {
                    "value": null
                  }
                }
              },
              "application/odm+xml": {
                "schema": {
                  "$ref": "#/components/schemas/error"
                },
                "example": "<error> <statusCode>string</statusCode> <reasonPhrase>string</reasonPhrase> <userMessage>string</userMessage> <adminMessage>string</adminMessage> </error>"
              },
              "application/gzip": {
                "schema": {
                  "$ref": "#/components/schemas/error"
                },
                "examples": {
                  "default": {
                    "value": null
                  }
                }
              }
            }
          },
          "401": {
            "description": "Unauthorized",
            "headers": {
              "WWW_Authenticate": {
                "schema": {
                  "type": "string"
                }
              }
            },
            "content": {
              "application/json": {
                "schema": {
                  "$ref": "#/components/schemas/error"
                },
                "example": {
                  "statusCode": "string",
                  "reasonPhrase": "string",
                  "userMessage": "string",
                  "adminMessage": "string"
                }
              },
              "application/xml": {
                "schema": {
                  "$ref": "#/components/schemas/error"
                },
                "example": "<error> <statusCode>string</statusCode> <reasonPhrase>string</reasonPhrase> <userMessage>string</userMessage> <adminMessage>string</adminMessage> </error>"
              },
              "text/csv": {
                "schema": {
                  "$ref": "#/components/schemas/error"
                },
                "examples": {
                  "default": {
                    "value": null
                  }
                }
              },
              "application/vnd.openxmlformats-officedocument.spreadsheetml.sheet": {
                "schema": {
                  "$ref": "#/components/schemas/error"
                },
                "example": "<error> <statusCode>string</statusCode> <reasonPhrase>string</reasonPhrase> <userMessage>string</userMessage> <adminMessage>string</adminMessage> </error>"
              },
              "application/vnd.ms-excel": {
                "schema": {
                  "$ref": "#/components/schemas/error"
                },
                "examples": {
                  "default": {
                    "value": null
                  }
                }
              },
              "application/odm+xml": {
                "schema": {
                  "$ref": "#/components/schemas/error"
                },
                "example": "<error> <statusCode>string</statusCode> <reasonPhrase>string</reasonPhrase> <userMessage>string</userMessage> <adminMessage>string</adminMessage> </error>"
              },
              "application/gzip": {
                "schema": {
                  "$ref": "#/components/schemas/error"
                },
                "examples": {
                  "default": {
                    "value": null
                  }
                }
              }
            }
          },
          "403": {
            "description": "Forbidden",
            "content": {
              "application/json": {
                "schema": {
                  "$ref": "#/components/schemas/error"
                },
                "example": {
                  "statusCode": "string",
                  "reasonPhrase": "string",
                  "userMessage": "string",
                  "adminMessage": "string"
                }
              },
              "application/xml": {
                "schema": {
                  "$ref": "#/components/schemas/error"
                },
                "example": "<error> <statusCode>string</statusCode> <reasonPhrase>string</reasonPhrase> <userMessage>string</userMessage> <adminMessage>string</adminMessage> </error>"
              },
              "text/csv": {
                "schema": {
                  "$ref": "#/components/schemas/error"
                },
                "examples": {
                  "default": {
                    "value": null
                  }
                }
              },
              "application/vnd.openxmlformats-officedocument.spreadsheetml.sheet": {
                "schema": {
                  "$ref": "#/components/schemas/error"
                },
                "example": "<error> <statusCode>string</statusCode> <reasonPhrase>string</reasonPhrase> <userMessage>string</userMessage> <adminMessage>string</adminMessage> </error>"
              },
              "application/vnd.ms-excel": {
                "schema": {
                  "$ref": "#/components/schemas/error"
                },
                "examples": {
                  "default": {
                    "value": null
                  }
                }
              },
              "application/odm+xml": {
                "schema": {
                  "$ref": "#/components/schemas/error"
                },
                "example": "<error> <statusCode>string</statusCode> <reasonPhrase>string</reasonPhrase> <userMessage>string</userMessage> <adminMessage>string</adminMessage> </error>"
              },
              "application/gzip": {
                "schema": {
                  "$ref": "#/components/schemas/error"
                },
                "examples": {
                  "default": {
                    "value": null
                  }
                }
              }
            }
          },
          "404": {
            "description": "Not Found",
            "content": {
              "application/json": {
                "schema": {
                  "$ref": "#/components/schemas/error"
                },
                "example": {
                  "statusCode": "string",
                  "reasonPhrase": "string",
                  "userMessage": "string",
                  "adminMessage": "string"
                }
              },
              "application/xml": {
                "schema": {
                  "$ref": "#/components/schemas/error"
                },
                "example": "<error> <statusCode>string</statusCode> <reasonPhrase>string</reasonPhrase> <userMessage>string</userMessage> <adminMessage>string</adminMessage> </error>"
              },
              "text/csv": {
                "schema": {
                  "$ref": "#/components/schemas/error"
                },
                "examples": {
                  "default": {
                    "value": null
                  }
                }
              },
              "application/vnd.openxmlformats-officedocument.spreadsheetml.sheet": {
                "schema": {
                  "$ref": "#/components/schemas/error"
                },
                "example": "<error> <statusCode>string</statusCode> <reasonPhrase>string</reasonPhrase> <userMessage>string</userMessage> <adminMessage>string</adminMessage> </error>"
              },
              "application/vnd.ms-excel": {
                "schema": {
                  "$ref": "#/components/schemas/error"
                },
                "examples": {
                  "default": {
                    "value": null
                  }
                }
              },
              "application/odm+xml": {
                "schema": {
                  "$ref": "#/components/schemas/error"
                },
                "example": "<error> <statusCode>string</statusCode> <reasonPhrase>string</reasonPhrase> <userMessage>string</userMessage> <adminMessage>string</adminMessage> </error>"
              },
              "application/gzip": {
                "schema": {
                  "$ref": "#/components/schemas/error"
                },
                "examples": {
                  "default": {
                    "value": null
                  }
                }
              }
            }
          },
          "406": {
            "description": "Not Acceptable",
            "content": {
              "application/json": {
                "schema": {
                  "$ref": "#/components/schemas/error"
                },
                "example": {
                  "statusCode": "string",
                  "reasonPhrase": "string",
                  "userMessage": "string",
                  "adminMessage": "string"
                }
              },
              "application/xml": {
                "schema": {
                  "$ref": "#/components/schemas/error"
                },
                "example": "<error> <statusCode>string</statusCode> <reasonPhrase>string</reasonPhrase> <userMessage>string</userMessage> <adminMessage>string</adminMessage> </error>"
              },
              "text/csv": {
                "schema": {
                  "$ref": "#/components/schemas/error"
                },
                "examples": {
                  "default": {
                    "value": null
                  }
                }
              },
              "application/vnd.openxmlformats-officedocument.spreadsheetml.sheet": {
                "schema": {
                  "$ref": "#/components/schemas/error"
                },
                "example": "<error> <statusCode>string</statusCode> <reasonPhrase>string</reasonPhrase> <userMessage>string</userMessage> <adminMessage>string</adminMessage> </error>"
              },
              "application/vnd.ms-excel": {
                "schema": {
                  "$ref": "#/components/schemas/error"
                },
                "examples": {
                  "default": {
                    "value": null
                  }
                }
              },
              "application/odm+xml": {
                "schema": {
                  "$ref": "#/components/schemas/error"
                },
                "example": "<error> <statusCode>string</statusCode> <reasonPhrase>string</reasonPhrase> <userMessage>string</userMessage> <adminMessage>string</adminMessage> </error>"
              },
              "application/gzip": {
                "schema": {
                  "$ref": "#/components/schemas/error"
                },
                "examples": {
                  "default": {
                    "value": null
                  }
                }
              }
            }
          },
          "500": {
            "description": "Internal Server Error",
            "content": {
              "application/json": {
                "schema": {
                  "$ref": "#/components/schemas/error"
                },
                "example": {
                  "statusCode": "string",
                  "reasonPhrase": "string",
                  "userMessage": "string",
                  "adminMessage": "string"
                }
              },
              "application/xml": {
                "schema": {
                  "$ref": "#/components/schemas/error"
                },
                "example": "<error> <statusCode>string</statusCode> <reasonPhrase>string</reasonPhrase> <userMessage>string</userMessage> <adminMessage>string</adminMessage> </error>"
              },
              "text/csv": {
                "schema": {
                  "$ref": "#/components/schemas/error"
                },
                "examples": {
                  "default": {
                    "value": null
                  }
                }
              },
              "application/vnd.openxmlformats-officedocument.spreadsheetml.sheet": {
                "schema": {
                  "$ref": "#/components/schemas/error"
                },
                "example": "<error> <statusCode>string</statusCode> <reasonPhrase>string</reasonPhrase> <userMessage>string</userMessage> <adminMessage>string</adminMessage> </error>"
              },
              "application/vnd.ms-excel": {
                "schema": {
                  "$ref": "#/components/schemas/error"
                },
                "examples": {
                  "default": {
                    "value": null
                  }
                }
              },
              "application/odm+xml": {
                "schema": {
                  "$ref": "#/components/schemas/error"
                },
                "example": "<error> <statusCode>string</statusCode> <reasonPhrase>string</reasonPhrase> <userMessage>string</userMessage> <adminMessage>string</adminMessage> </error>"
              },
              "application/gzip": {
                "schema": {
                  "$ref": "#/components/schemas/error"
                },
                "examples": {
                  "default": {
                    "value": null
                  }
                }
              }
            }
          },
          "503": {
            "description": "Service Unavailable",
            "content": {
              "application/json": {
                "schema": {
                  "$ref": "#/components/schemas/error"
                },
                "example": {
                  "statusCode": "string",
                  "reasonPhrase": "string",
                  "userMessage": "string",
                  "adminMessage": "string"
                }
              },
              "application/xml": {
                "schema": {
                  "$ref": "#/components/schemas/error"
                },
                "example": "<error> <statusCode>string</statusCode> <reasonPhrase>string</reasonPhrase> <userMessage>string</userMessage> <adminMessage>string</adminMessage> </error>"
              },
              "text/csv": {
                "schema": {
                  "$ref": "#/components/schemas/error"
                },
                "examples": {
                  "default": {
                    "value": null
                  }
                }
              },
              "application/vnd.openxmlformats-officedocument.spreadsheetml.sheet": {
                "schema": {
                  "$ref": "#/components/schemas/error"
                },
                "example": "<error> <statusCode>string</statusCode> <reasonPhrase>string</reasonPhrase> <userMessage>string</userMessage> <adminMessage>string</adminMessage> </error>"
              },
              "application/vnd.ms-excel": {
                "schema": {
                  "$ref": "#/components/schemas/error"
                },
                "examples": {
                  "default": {
                    "value": null
                  }
                }
              },
              "application/odm+xml": {
                "schema": {
                  "$ref": "#/components/schemas/error"
                },
                "example": "<error> <statusCode>string</statusCode> <reasonPhrase>string</reasonPhrase> <userMessage>string</userMessage> <adminMessage>string</adminMessage> </error>"
              },
              "application/gzip": {
                "schema": {
                  "$ref": "#/components/schemas/error"
                },
                "examples": {
                  "default": {
                    "value": null
                  }
                }
              }
            }
          }
        }
      }
    },
    "/mdr/ct/packages": {
      "get": {
        "tags": [
          "Controlled Terminology (CT)"
        ],
        "summary": "Get CT Package List",
        "description": "Get CT Package List",
        "operationId": "api-products-ct-get_packages",
        "responses": {
          "200": {
            "description": "OK",
            "content": {
              "application/json": {
                "schema": {
                  "$ref": "#/components/schemas/packageList"
                },
                "example": {
                  "_links": {
                    "self": {
                      "href": "string",
                      "title": "string",
                      "type": "string"
                    },
                    "packages": [
                      {
                        "href": "string",
                        "title": "string",
                        "type": "string"
                      }
                    ]
                  }
                }
              },
              "application/xml": {
                "schema": {
                  "$ref": "#/components/schemas/packageList"
                },
                "example": "<packageList> <_links> <self> <href>string</href> <title>string</title> <type>string</type> </self> <packages> <href>string</href> <title>string</title> <type>string</type> </packages> </_links> </packageList>"
              },
              "text/csv": {
                "schema": {
                  "$ref": "#/components/schemas/packageList"
                },
                "examples": {
                  "default": {
                    "value": null
                  }
                }
              },
              "application/vnd.openxmlformats-officedocument.spreadsheetml.sheet": {
                "schema": {
                  "$ref": "#/components/schemas/packageList"
                },
                "example": "<packageList> <_links> <self> <href>string</href> <title>string</title> <type>string</type> </self> <packages> <href>string</href> <title>string</title> <type>string</type> </packages> </_links> </packageList>"
              },
              "application/vnd.ms-excel": {
                "schema": {
                  "$ref": "#/components/schemas/packageList"
                },
                "examples": {
                  "default": {
                    "value": null
                  }
                }
              },
              "application/odm+xml": {
                "schema": {
                  "$ref": "#/components/schemas/packageList"
                },
                "example": "<packageList> <_links> <self> <href>string</href> <title>string</title> <type>string</type> </self> <packages> <href>string</href> <title>string</title> <type>string</type> </packages> </_links> </packageList>"
              },
              "application/gzip": {
                "schema": {
                  "$ref": "#/components/schemas/packageList"
                },
                "examples": {
                  "default": {
                    "value": null
                  }
                }
              }
            }
          },
          "400": {
            "description": "Bad Request",
            "content": {
              "application/json": {
                "schema": {
                  "$ref": "#/components/schemas/error"
                },
                "example": {
                  "statusCode": "string",
                  "reasonPhrase": "string",
                  "userMessage": "string",
                  "adminMessage": "string"
                }
              },
              "application/xml": {
                "schema": {
                  "$ref": "#/components/schemas/error"
                },
                "example": "<error> <statusCode>string</statusCode> <reasonPhrase>string</reasonPhrase> <userMessage>string</userMessage> <adminMessage>string</adminMessage> </error>"
              },
              "text/csv": {
                "schema": {
                  "$ref": "#/components/schemas/error"
                },
                "examples": {
                  "default": {
                    "value": null
                  }
                }
              },
              "application/vnd.openxmlformats-officedocument.spreadsheetml.sheet": {
                "schema": {
                  "$ref": "#/components/schemas/error"
                },
                "example": "<error> <statusCode>string</statusCode> <reasonPhrase>string</reasonPhrase> <userMessage>string</userMessage> <adminMessage>string</adminMessage> </error>"
              },
              "application/vnd.ms-excel": {
                "schema": {
                  "$ref": "#/components/schemas/error"
                },
                "examples": {
                  "default": {
                    "value": null
                  }
                }
              },
              "application/odm+xml": {
                "schema": {
                  "$ref": "#/components/schemas/error"
                },
                "example": "<error> <statusCode>string</statusCode> <reasonPhrase>string</reasonPhrase> <userMessage>string</userMessage> <adminMessage>string</adminMessage> </error>"
              },
              "application/gzip": {
                "schema": {
                  "$ref": "#/components/schemas/error"
                },
                "examples": {
                  "default": {
                    "value": null
                  }
                }
              }
            }
          },
          "401": {
            "description": "Unauthorized",
            "headers": {
              "WWW_Authenticate": {
                "schema": {
                  "type": "string"
                }
              }
            },
            "content": {
              "application/json": {
                "schema": {
                  "$ref": "#/components/schemas/error"
                },
                "example": {
                  "statusCode": "string",
                  "reasonPhrase": "string",
                  "userMessage": "string",
                  "adminMessage": "string"
                }
              },
              "application/xml": {
                "schema": {
                  "$ref": "#/components/schemas/error"
                },
                "example": "<error> <statusCode>string</statusCode> <reasonPhrase>string</reasonPhrase> <userMessage>string</userMessage> <adminMessage>string</adminMessage> </error>"
              },
              "text/csv": {
                "schema": {
                  "$ref": "#/components/schemas/error"
                },
                "examples": {
                  "default": {
                    "value": null
                  }
                }
              },
              "application/vnd.openxmlformats-officedocument.spreadsheetml.sheet": {
                "schema": {
                  "$ref": "#/components/schemas/error"
                },
                "example": "<error> <statusCode>string</statusCode> <reasonPhrase>string</reasonPhrase> <userMessage>string</userMessage> <adminMessage>string</adminMessage> </error>"
              },
              "application/vnd.ms-excel": {
                "schema": {
                  "$ref": "#/components/schemas/error"
                },
                "examples": {
                  "default": {
                    "value": null
                  }
                }
              },
              "application/odm+xml": {
                "schema": {
                  "$ref": "#/components/schemas/error"
                },
                "example": "<error> <statusCode>string</statusCode> <reasonPhrase>string</reasonPhrase> <userMessage>string</userMessage> <adminMessage>string</adminMessage> </error>"
              },
              "application/gzip": {
                "schema": {
                  "$ref": "#/components/schemas/error"
                },
                "examples": {
                  "default": {
                    "value": null
                  }
                }
              }
            }
          },
          "403": {
            "description": "Forbidden",
            "content": {
              "application/json": {
                "schema": {
                  "$ref": "#/components/schemas/error"
                },
                "example": {
                  "statusCode": "string",
                  "reasonPhrase": "string",
                  "userMessage": "string",
                  "adminMessage": "string"
                }
              },
              "application/xml": {
                "schema": {
                  "$ref": "#/components/schemas/error"
                },
                "example": "<error> <statusCode>string</statusCode> <reasonPhrase>string</reasonPhrase> <userMessage>string</userMessage> <adminMessage>string</adminMessage> </error>"
              },
              "text/csv": {
                "schema": {
                  "$ref": "#/components/schemas/error"
                },
                "examples": {
                  "default": {
                    "value": null
                  }
                }
              },
              "application/vnd.openxmlformats-officedocument.spreadsheetml.sheet": {
                "schema": {
                  "$ref": "#/components/schemas/error"
                },
                "example": "<error> <statusCode>string</statusCode> <reasonPhrase>string</reasonPhrase> <userMessage>string</userMessage> <adminMessage>string</adminMessage> </error>"
              },
              "application/vnd.ms-excel": {
                "schema": {
                  "$ref": "#/components/schemas/error"
                },
                "examples": {
                  "default": {
                    "value": null
                  }
                }
              },
              "application/odm+xml": {
                "schema": {
                  "$ref": "#/components/schemas/error"
                },
                "example": "<error> <statusCode>string</statusCode> <reasonPhrase>string</reasonPhrase> <userMessage>string</userMessage> <adminMessage>string</adminMessage> </error>"
              },
              "application/gzip": {
                "schema": {
                  "$ref": "#/components/schemas/error"
                },
                "examples": {
                  "default": {
                    "value": null
                  }
                }
              }
            }
          },
          "404": {
            "description": "Not Found",
            "content": {
              "application/json": {
                "schema": {
                  "$ref": "#/components/schemas/error"
                },
                "example": {
                  "statusCode": "string",
                  "reasonPhrase": "string",
                  "userMessage": "string",
                  "adminMessage": "string"
                }
              },
              "application/xml": {
                "schema": {
                  "$ref": "#/components/schemas/error"
                },
                "example": "<error> <statusCode>string</statusCode> <reasonPhrase>string</reasonPhrase> <userMessage>string</userMessage> <adminMessage>string</adminMessage> </error>"
              },
              "text/csv": {
                "schema": {
                  "$ref": "#/components/schemas/error"
                },
                "examples": {
                  "default": {
                    "value": null
                  }
                }
              },
              "application/vnd.openxmlformats-officedocument.spreadsheetml.sheet": {
                "schema": {
                  "$ref": "#/components/schemas/error"
                },
                "example": "<error> <statusCode>string</statusCode> <reasonPhrase>string</reasonPhrase> <userMessage>string</userMessage> <adminMessage>string</adminMessage> </error>"
              },
              "application/vnd.ms-excel": {
                "schema": {
                  "$ref": "#/components/schemas/error"
                },
                "examples": {
                  "default": {
                    "value": null
                  }
                }
              },
              "application/odm+xml": {
                "schema": {
                  "$ref": "#/components/schemas/error"
                },
                "example": "<error> <statusCode>string</statusCode> <reasonPhrase>string</reasonPhrase> <userMessage>string</userMessage> <adminMessage>string</adminMessage> </error>"
              },
              "application/gzip": {
                "schema": {
                  "$ref": "#/components/schemas/error"
                },
                "examples": {
                  "default": {
                    "value": null
                  }
                }
              }
            }
          },
          "406": {
            "description": "Not Acceptable",
            "content": {
              "application/json": {
                "schema": {
                  "$ref": "#/components/schemas/error"
                },
                "example": {
                  "statusCode": "string",
                  "reasonPhrase": "string",
                  "userMessage": "string",
                  "adminMessage": "string"
                }
              },
              "application/xml": {
                "schema": {
                  "$ref": "#/components/schemas/error"
                },
                "example": "<error> <statusCode>string</statusCode> <reasonPhrase>string</reasonPhrase> <userMessage>string</userMessage> <adminMessage>string</adminMessage> </error>"
              },
              "text/csv": {
                "schema": {
                  "$ref": "#/components/schemas/error"
                },
                "examples": {
                  "default": {
                    "value": null
                  }
                }
              },
              "application/vnd.openxmlformats-officedocument.spreadsheetml.sheet": {
                "schema": {
                  "$ref": "#/components/schemas/error"
                },
                "example": "<error> <statusCode>string</statusCode> <reasonPhrase>string</reasonPhrase> <userMessage>string</userMessage> <adminMessage>string</adminMessage> </error>"
              },
              "application/vnd.ms-excel": {
                "schema": {
                  "$ref": "#/components/schemas/error"
                },
                "examples": {
                  "default": {
                    "value": null
                  }
                }
              },
              "application/odm+xml": {
                "schema": {
                  "$ref": "#/components/schemas/error"
                },
                "example": "<error> <statusCode>string</statusCode> <reasonPhrase>string</reasonPhrase> <userMessage>string</userMessage> <adminMessage>string</adminMessage> </error>"
              },
              "application/gzip": {
                "schema": {
                  "$ref": "#/components/schemas/error"
                },
                "examples": {
                  "default": {
                    "value": null
                  }
                }
              }
            }
          },
          "500": {
            "description": "Internal Server Error",
            "content": {
              "application/json": {
                "schema": {
                  "$ref": "#/components/schemas/error"
                },
                "example": {
                  "statusCode": "string",
                  "reasonPhrase": "string",
                  "userMessage": "string",
                  "adminMessage": "string"
                }
              },
              "application/xml": {
                "schema": {
                  "$ref": "#/components/schemas/error"
                },
                "example": "<error> <statusCode>string</statusCode> <reasonPhrase>string</reasonPhrase> <userMessage>string</userMessage> <adminMessage>string</adminMessage> </error>"
              },
              "text/csv": {
                "schema": {
                  "$ref": "#/components/schemas/error"
                },
                "examples": {
                  "default": {
                    "value": null
                  }
                }
              },
              "application/vnd.openxmlformats-officedocument.spreadsheetml.sheet": {
                "schema": {
                  "$ref": "#/components/schemas/error"
                },
                "example": "<error> <statusCode>string</statusCode> <reasonPhrase>string</reasonPhrase> <userMessage>string</userMessage> <adminMessage>string</adminMessage> </error>"
              },
              "application/vnd.ms-excel": {
                "schema": {
                  "$ref": "#/components/schemas/error"
                },
                "examples": {
                  "default": {
                    "value": null
                  }
                }
              },
              "application/odm+xml": {
                "schema": {
                  "$ref": "#/components/schemas/error"
                },
                "example": "<error> <statusCode>string</statusCode> <reasonPhrase>string</reasonPhrase> <userMessage>string</userMessage> <adminMessage>string</adminMessage> </error>"
              },
              "application/gzip": {
                "schema": {
                  "$ref": "#/components/schemas/error"
                },
                "examples": {
                  "default": {
                    "value": null
                  }
                }
              }
            }
          },
          "503": {
            "description": "Service Unavailable",
            "content": {
              "application/json": {
                "schema": {
                  "$ref": "#/components/schemas/error"
                },
                "example": {
                  "statusCode": "string",
                  "reasonPhrase": "string",
                  "userMessage": "string",
                  "adminMessage": "string"
                }
              },
              "application/xml": {
                "schema": {
                  "$ref": "#/components/schemas/error"
                },
                "example": "<error> <statusCode>string</statusCode> <reasonPhrase>string</reasonPhrase> <userMessage>string</userMessage> <adminMessage>string</adminMessage> </error>"
              },
              "text/csv": {
                "schema": {
                  "$ref": "#/components/schemas/error"
                },
                "examples": {
                  "default": {
                    "value": null
                  }
                }
              },
              "application/vnd.openxmlformats-officedocument.spreadsheetml.sheet": {
                "schema": {
                  "$ref": "#/components/schemas/error"
                },
                "example": "<error> <statusCode>string</statusCode> <reasonPhrase>string</reasonPhrase> <userMessage>string</userMessage> <adminMessage>string</adminMessage> </error>"
              },
              "application/vnd.ms-excel": {
                "schema": {
                  "$ref": "#/components/schemas/error"
                },
                "examples": {
                  "default": {
                    "value": null
                  }
                }
              },
              "application/odm+xml": {
                "schema": {
                  "$ref": "#/components/schemas/error"
                },
                "example": "<error> <statusCode>string</statusCode> <reasonPhrase>string</reasonPhrase> <userMessage>string</userMessage> <adminMessage>string</adminMessage> </error>"
              },
              "application/gzip": {
                "schema": {
                  "$ref": "#/components/schemas/error"
                },
                "examples": {
                  "default": {
                    "value": null
                  }
                }
              }
            }
          }
        }
      }
    },
    "/mdr/ct/packages/{package}": {
      "get": {
        "tags": [
          "Controlled Terminology (CT)"
        ],
        "summary": "Get CT Package",
        "description": "Get CT Package",
        "operationId": "api-products-ct-get_package",
        "parameters": [
          {
            "name": "package",
            "in": "path",
            "description": "CT Package Identifier",
            "required": true,
            "schema": {
              "type": "string"
            }
          },
          {
            "name": "expand",
            "in": "query",
            "description": "If true, entity links will be hydrated and returned within the response (e.g. Fields, Domains, Classes)",
            "schema": {
              "type": "boolean",
              "default": false
            }
          }
        ],
        "responses": {
          "200": {
            "description": "OK",
            "content": {
              "application/json": {
                "schema": {
                  "$ref": "#/components/schemas/package"
                },
                "example": {
                  "name": "string",
                  "label": "string",
                  "description": "string",
                  "source": "string",
                  "effectiveDate": "string",
                  "registrationStatus": "string",
                  "version": "string",
                  "_links": {
                    "self": {
                      "href": "string",
                      "title": "string",
                      "type": "string"
                    },
                    "priorVersion": {
                      "href": "string",
                      "title": "string",
                      "type": "string"
                    }
                  },
                  "codelists": [
                    {
                      "conceptId": "string",
                      "extensible": true,
                      "name": "string",
                      "submissionValue": "string",
                      "definition": "string",
                      "preferredTerm": "string",
                      "synonyms": [
                        "string"
                      ],
                      "terms": [
                        {
                          "conceptId": "string",
                          "submissionValue": "string",
                          "definition": "string",
                          "preferredTerm": "string",
                          "synonyms": [
                            "string"
                          ]
                        }
                      ]
                    }
                  ]
                }
              },
              "application/xml": {
                "schema": {
                  "$ref": "#/components/schemas/package"
                },
                "example": "<package> <name>string</name> <label>string</label> <description>string</description> <source>string</source> <effectiveDate>string</effectiveDate> <registrationStatus>string</registrationStatus> <version>string</version> <_links> <self> <href>string</href> <title>string</title> <type>string</type> </self> <priorVersion> <href>string</href> <title>string</title> <type>string</type> </priorVersion> </_links> <codelists> <conceptId>string</conceptId> <extensible>true</extensible> <name>string</name> <submissionValue>string</submissionValue> <definition>string</definition> <preferredTerm>string</preferredTerm> <synonyms>string</synonyms> <terms> <conceptId>string</conceptId> <submissionValue>string</submissionValue> <definition>string</definition> <preferredTerm>string</preferredTerm> <synonyms>string</synonyms> </terms> </codelists> </package>"
              },
              "text/csv": {
                "schema": {
                  "$ref": "#/components/schemas/package"
                },
                "examples": {
                  "default": {
                    "value": null
                  }
                }
              },
              "application/vnd.openxmlformats-officedocument.spreadsheetml.sheet": {
                "schema": {
                  "$ref": "#/components/schemas/package"
                },
                "example": "<package> <name>string</name> <label>string</label> <description>string</description> <source>string</source> <effectiveDate>string</effectiveDate> <registrationStatus>string</registrationStatus> <version>string</version> <_links> <self> <href>string</href> <title>string</title> <type>string</type> </self> <priorVersion> <href>string</href> <title>string</title> <type>string</type> </priorVersion> </_links> <codelists> <conceptId>string</conceptId> <extensible>true</extensible> <name>string</name> <submissionValue>string</submissionValue> <definition>string</definition> <preferredTerm>string</preferredTerm> <synonyms>string</synonyms> <terms> <conceptId>string</conceptId> <submissionValue>string</submissionValue> <definition>string</definition> <preferredTerm>string</preferredTerm> <synonyms>string</synonyms> </terms> </codelists> </package>"
              },
              "application/vnd.ms-excel": {
                "schema": {
                  "$ref": "#/components/schemas/package"
                },
                "examples": {
                  "default": {
                    "value": null
                  }
                }
              },
              "application/odm+xml": {
                "schema": {
                  "$ref": "#/components/schemas/package"
                },
                "example": "<package> <name>string</name> <label>string</label> <description>string</description> <source>string</source> <effectiveDate>string</effectiveDate> <registrationStatus>string</registrationStatus> <version>string</version> <_links> <self> <href>string</href> <title>string</title> <type>string</type> </self> <priorVersion> <href>string</href> <title>string</title> <type>string</type> </priorVersion> </_links> <codelists> <conceptId>string</conceptId> <extensible>true</extensible> <name>string</name> <submissionValue>string</submissionValue> <definition>string</definition> <preferredTerm>string</preferredTerm> <synonyms>string</synonyms> <terms> <conceptId>string</conceptId> <submissionValue>string</submissionValue> <definition>string</definition> <preferredTerm>string</preferredTerm> <synonyms>string</synonyms> </terms> </codelists> </package>"
              },
              "application/gzip": {
                "schema": {
                  "$ref": "#/components/schemas/package"
                },
                "examples": {
                  "default": {
                    "value": null
                  }
                }
              }
            }
          },
          "400": {
            "description": "Bad Request",
            "content": {
              "application/json": {
                "schema": {
                  "$ref": "#/components/schemas/error"
                },
                "example": {
                  "statusCode": "string",
                  "reasonPhrase": "string",
                  "userMessage": "string",
                  "adminMessage": "string"
                }
              },
              "application/xml": {
                "schema": {
                  "$ref": "#/components/schemas/error"
                },
                "example": "<error> <statusCode>string</statusCode> <reasonPhrase>string</reasonPhrase> <userMessage>string</userMessage> <adminMessage>string</adminMessage> </error>"
              },
              "text/csv": {
                "schema": {
                  "$ref": "#/components/schemas/error"
                },
                "examples": {
                  "default": {
                    "value": null
                  }
                }
              },
              "application/vnd.openxmlformats-officedocument.spreadsheetml.sheet": {
                "schema": {
                  "$ref": "#/components/schemas/error"
                },
                "example": "<error> <statusCode>string</statusCode> <reasonPhrase>string</reasonPhrase> <userMessage>string</userMessage> <adminMessage>string</adminMessage> </error>"
              },
              "application/vnd.ms-excel": {
                "schema": {
                  "$ref": "#/components/schemas/error"
                },
                "examples": {
                  "default": {
                    "value": null
                  }
                }
              },
              "application/odm+xml": {
                "schema": {
                  "$ref": "#/components/schemas/error"
                },
                "example": "<error> <statusCode>string</statusCode> <reasonPhrase>string</reasonPhrase> <userMessage>string</userMessage> <adminMessage>string</adminMessage> </error>"
              },
              "application/gzip": {
                "schema": {
                  "$ref": "#/components/schemas/error"
                },
                "examples": {
                  "default": {
                    "value": null
                  }
                }
              }
            }
          },
          "401": {
            "description": "Unauthorized",
            "headers": {
              "WWW_Authenticate": {
                "schema": {
                  "type": "string"
                }
              }
            },
            "content": {
              "application/json": {
                "schema": {
                  "$ref": "#/components/schemas/error"
                },
                "example": {
                  "statusCode": "string",
                  "reasonPhrase": "string",
                  "userMessage": "string",
                  "adminMessage": "string"
                }
              },
              "application/xml": {
                "schema": {
                  "$ref": "#/components/schemas/error"
                },
                "example": "<error> <statusCode>string</statusCode> <reasonPhrase>string</reasonPhrase> <userMessage>string</userMessage> <adminMessage>string</adminMessage> </error>"
              },
              "text/csv": {
                "schema": {
                  "$ref": "#/components/schemas/error"
                },
                "examples": {
                  "default": {
                    "value": null
                  }
                }
              },
              "application/vnd.openxmlformats-officedocument.spreadsheetml.sheet": {
                "schema": {
                  "$ref": "#/components/schemas/error"
                },
                "example": "<error> <statusCode>string</statusCode> <reasonPhrase>string</reasonPhrase> <userMessage>string</userMessage> <adminMessage>string</adminMessage> </error>"
              },
              "application/vnd.ms-excel": {
                "schema": {
                  "$ref": "#/components/schemas/error"
                },
                "examples": {
                  "default": {
                    "value": null
                  }
                }
              },
              "application/odm+xml": {
                "schema": {
                  "$ref": "#/components/schemas/error"
                },
                "example": "<error> <statusCode>string</statusCode> <reasonPhrase>string</reasonPhrase> <userMessage>string</userMessage> <adminMessage>string</adminMessage> </error>"
              },
              "application/gzip": {
                "schema": {
                  "$ref": "#/components/schemas/error"
                },
                "examples": {
                  "default": {
                    "value": null
                  }
                }
              }
            }
          },
          "403": {
            "description": "Forbidden",
            "content": {
              "application/json": {
                "schema": {
                  "$ref": "#/components/schemas/error"
                },
                "example": {
                  "statusCode": "string",
                  "reasonPhrase": "string",
                  "userMessage": "string",
                  "adminMessage": "string"
                }
              },
              "application/xml": {
                "schema": {
                  "$ref": "#/components/schemas/error"
                },
                "example": "<error> <statusCode>string</statusCode> <reasonPhrase>string</reasonPhrase> <userMessage>string</userMessage> <adminMessage>string</adminMessage> </error>"
              },
              "text/csv": {
                "schema": {
                  "$ref": "#/components/schemas/error"
                },
                "examples": {
                  "default": {
                    "value": null
                  }
                }
              },
              "application/vnd.openxmlformats-officedocument.spreadsheetml.sheet": {
                "schema": {
                  "$ref": "#/components/schemas/error"
                },
                "example": "<error> <statusCode>string</statusCode> <reasonPhrase>string</reasonPhrase> <userMessage>string</userMessage> <adminMessage>string</adminMessage> </error>"
              },
              "application/vnd.ms-excel": {
                "schema": {
                  "$ref": "#/components/schemas/error"
                },
                "examples": {
                  "default": {
                    "value": null
                  }
                }
              },
              "application/odm+xml": {
                "schema": {
                  "$ref": "#/components/schemas/error"
                },
                "example": "<error> <statusCode>string</statusCode> <reasonPhrase>string</reasonPhrase> <userMessage>string</userMessage> <adminMessage>string</adminMessage> </error>"
              },
              "application/gzip": {
                "schema": {
                  "$ref": "#/components/schemas/error"
                },
                "examples": {
                  "default": {
                    "value": null
                  }
                }
              }
            }
          },
          "404": {
            "description": "Not Found",
            "content": {
              "application/json": {
                "schema": {
                  "$ref": "#/components/schemas/error"
                },
                "example": {
                  "statusCode": "string",
                  "reasonPhrase": "string",
                  "userMessage": "string",
                  "adminMessage": "string"
                }
              },
              "application/xml": {
                "schema": {
                  "$ref": "#/components/schemas/error"
                },
                "example": "<error> <statusCode>string</statusCode> <reasonPhrase>string</reasonPhrase> <userMessage>string</userMessage> <adminMessage>string</adminMessage> </error>"
              },
              "text/csv": {
                "schema": {
                  "$ref": "#/components/schemas/error"
                },
                "examples": {
                  "default": {
                    "value": null
                  }
                }
              },
              "application/vnd.openxmlformats-officedocument.spreadsheetml.sheet": {
                "schema": {
                  "$ref": "#/components/schemas/error"
                },
